trial_type,trial_num,stim_id,degree,context_sentence,superordinate,np,np_expectations,adj,adj_polarity,rt,response,workerid,pass_comp,pass_memory,pass_both,np_match,stopPhrase,stopPhrase2,responseLength,response_spelling,response_synonym,response_lemma,corrected_spelling,corrected_synonym,corrected_lemma,cleanedPhrase,np_match_us,super_us,specific,matchingSuper,response_lemma_hand,n,n_unique_resps,produced_super
free_class_elicitation,1,40,loudness,Kim wants to play music and tries out an ukelele.,guitars,ukelele,low,loud,positive,20981,things in the room,workerid_0001,TRUE,TRUE,TRUE,ukelele,the ukelele is loud,the ukelele is loud.,4,things in the room,things in the room,things,FALSE,FALSE,FALSE,_things_,_ukelele_,_guitars_,0,0,things,1,1,guitars
free_class_elicitation,11,5,darkness,David is writing with a pen and notices the color of the script.,writing utensils,pen,medium,dark,negative,12971,scripts,workerid_0001,TRUE,TRUE,TRUE,pen,the pen is dark,the pen is dark.,1,scripts,scripts,script,FALSE,FALSE,FALSE,_script_,_pen_,_writing utensils_,0,0,script,60,60,script
free_class_elicitation,10,31,loudness_n,Michelle is at a friend's place and hears her pet cat.,pets,cat,medium,quiet,negative,20675,animals,workerid_0002,TRUE,TRUE,TRUE,cat,the cat is quiet,the cat is quiet.,1,animals,animals,animals,FALSE,FALSE,FALSE,_animals_,_cat_,_pets_,0,0,animals,17,17,animals
free_class_elicitation,14,40,loudness,John wants to play music and tries out an acoustic guitar.,guitars,acoustic guitar,medium,loud,positive,10309,music,workerid_0002,TRUE,TRUE,TRUE,acoustic guitar,the acoustic guitar is loud,the acoustic guitar is loud.,1,music,music,music,FALSE,FALSE,FALSE,_music_,_acoustic guitar_,_guitars_,0,0,music,9,9,music
free_class_elicitation,26,24,length_duration,Kim sees a friend driving a pick-up truck.,vehicles,pick-up truck,medium,short,negative,15853,trucks,workerid_0002,TRUE,TRUE,TRUE,pick-up,the pick-up truck is short,the pick-up truck is short.,1,trucks,trucks,truck,FALSE,FALSE,FALSE,_truck_,_pick-up_,_vehicles_,0,0,truck,45,45,truck
free_class_elicitation,34,64,speed,Eric is at a friend's house and sees their pet cat come towards them.,pets,cat,medium,quick,positive,11392,animals,workerid_0002,TRUE,TRUE,TRUE,cat,the cat is quick,the cat is quick.,1,animals,animals,animals,FALSE,FALSE,FALSE,_animals_,_cat_,_pets_,0,0,animals,51,51,animals
free_class_elicitation,21,33,loudness_n,Greg is taking a walk in a park and hears the cry of a rooster.,birds,rooster,high,loud,positive,14124,animals,workerid_0003,TRUE,TRUE,TRUE,rooster,the rooster is loud,the rooster is loud.,1,animals,animals,animals,FALSE,FALSE,FALSE,_animals_,_rooster_,_birds_,0,0,animals,13,13,animals
free_class_elicitation,22,38,loudness,Julia is in a forest and hears a owl.,birds,owl,low,loud,positive,299487,animals,workerid_0003,TRUE,TRUE,TRUE,owl,the owl is loud,the owl is loud.,1,animals,animals,animals,FALSE,FALSE,FALSE,_animals_,_owl_,_birds_,0,0,animals,10,10,animals
free_class_elicitation,24,69,strength,Gabriel is watching a golfer lift weights.,athletes,golfer,low,weak,negative,5216,people,workerid_0003,TRUE,TRUE,TRUE,golfer,the golfer is weak,the golfer is weak.,1,people,people,people,FALSE,FALSE,FALSE,_people_,_golfer_,_athletes_,0,0,people,74,74,people
free_class_elicitation,22,75,temperature_h,Lee is in his kitchen and puts his hand in the oven.,locations,oven,high,warm,positive,19145,parts of the kitchen,workerid_0004,TRUE,TRUE,TRUE,oven,the oven is warm,the oven is warm.,4,parts of the kitchen,parts of the kitchen,the kitchen,FALSE,FALSE,FALSE,_the kitchen_,_oven_,_locations_,0,0,the kitchen,5,5,the kitchen
free_class_elicitation,33,38,loudness,Jennifer is in a forest and hears a owl.,birds,owl,low,quiet,negative,16462,parts of the forest,workerid_0004,TRUE,TRUE,TRUE,owl,the owl is quiet,the owl is quiet.,4,parts of the forest,parts of the forest,the forest,FALSE,FALSE,FALSE,_the forest_,_owl_,_birds_,0,0,the forest,1,1,birds
free_class_elicitation,1,79,weight,Natalia lifts up a baby.,people,baby,low,heavy,positive,12302,small things,workerid_0006,TRUE,TRUE,TRUE,baby,the baby is heavy,the baby is heavy.,2,small things,small things,things,FALSE,FALSE,FALSE,_things_,_baby_,_people_,0,0,things,2,2,people
free_class_elicitation,18,7,darkness,Michelle takes a walk and notices the coat of a spaniel.,dogs,spaniel,medium,light,positive,10409,coats,workerid_0007,TRUE,TRUE,TRUE,spaniel,the spaniel is light,the spaniel is light.,1,coats,coats,coat,FALSE,FALSE,FALSE,_coat_,_spaniel_,_dogs_,0,0,coat,48,48,coat
free_class_elicitation,22,16,height,Claire is looking at a strip mall.,buildings,strip mall,low,tall,positive,8389,malls,workerid_0007,TRUE,TRUE,TRUE,strip mall,the strip mall is tall,the strip mall is tall.,1,malls,malls,malls,FALSE,FALSE,FALSE,_malls_,_strip mall_,_buildings_,0,0,malls,34,34,malls
free_class_elicitation,34,31,loudness_n,Kim is at a friend's place and hears her pet parrot.,pets,parrot,high,loud,positive,25228,birds,workerid_0008,TRUE,TRUE,TRUE,parrot,the parrot is loud,the parrot is loud.,1,birds,birds,birdss,FALSE,FALSE,FALSE,_birdss_,_parrot_,_pets_,0,0,birdss,24,24,birdss
free_class_elicitation,1,40,loudness,Lee wants to play music and tries out a bass guitar.,guitars,bass guitar,high,quiet,negative,8798,instruments,workerid_0009,TRUE,TRUE,TRUE,bass,the bass guitar is quiet,the bass guitar is quiet.,1,instruments,instruments,instruments,FALSE,FALSE,FALSE,_instruments_,_bass_,_guitars_,0,0,instruments,120,120,instruments
free_class_elicitation,3,74,temperature,Josh steps outside on a day in winter.,seasons,winter,low,cold,negative,4808,days,workerid_0009,TRUE,TRUE,TRUE,winter,the winter is cold,the winter is cold.,1,days,days,day,FALSE,FALSE,FALSE,_day_,_winter_,_seasons_,0,0,day,146,146,day
free_class_elicitation,13,10,hardness,Eric is eating a marshmallow.,candies,marshmallow,low,soft,negative,7456,food,workerid_0009,TRUE,TRUE,TRUE,marshmallow,the marshmallow is soft,the marshmallow is soft.,1,food,food,food,FALSE,FALSE,FALSE,_food_,_marshmallow_,_candies_,0,0,food,32,32,food
free_class_elicitation,6,83,weight,Lucas is at a craft shop and picks up a piece of wool.,materials,wool,high,light,negative,19334,fabric,workerid_0010,TRUE,TRUE,TRUE,wool,the wool is light,the wool is light.,1,fabric,fabric,fabric,FALSE,FALSE,FALSE,_fabric_,_wool_,_materials_,0,0,fabric,86,86,fabric
free_class_elicitation,13,13,hardness,John is at a hardware store and picks up a piece of wood.,materials,wood,high,soft,negative,9452,fabric,workerid_0010,TRUE,TRUE,TRUE,wood,the wood is soft,the wood is soft.,1,fabric,fabric,fabric,FALSE,FALSE,FALSE,_fabric_,_wood_,_materials_,0,0,fabric,17,17,fabric
free_class_elicitation,19,90,width,Eric is attempting to move furniture through the patio door of his house.,doorways,patio door,medium,wide,positive,6087,doors,workerid_0010,TRUE,TRUE,TRUE,patio,the patio door is wide,the patio door is wide.,1,doors,doors,doors,FALSE,FALSE,FALSE,_doors_,_patio_,_doorways_,0,0,doors,69,69,doors
free_class_elicitation,19,83,weight,Laura is at a craft shop and picks up a piece of silk.,materials,silk,low,light,negative,11252,fabrics,workerid_0011,TRUE,TRUE,TRUE,silk,the silk is light,the silk is light.,1,fabrics,fabrics,fabric,FALSE,FALSE,FALSE,_fabric_,_silk_,_materials_,0,0,fabric,86,86,fabric
free_class_elicitation,24,74,temperature,Melinda steps outside on a day in summer.,seasons,summer,high,warm,positive,7427,days,workerid_0011,TRUE,TRUE,TRUE,summer,the summer is warm,the summer is warm.,1,days,days,day,FALSE,FALSE,FALSE,_day_,_summer_,_seasons_,0,0,day,146,146,day
free_class_elicitation,33,87,width,Michael is driving on a downtown street.,roads,downtown street,medium,wide,positive,7093,streets,workerid_0011,TRUE,TRUE,TRUE,downtown,the downtown street is wide,the downtown street is wide.,1,streets,streets,streets,FALSE,FALSE,FALSE,_streets_,_downtown_,_roads_,0,0,streets,91,91,streets
free_class_elicitation,23,69,strength,John is watching a cyclist lift weights.,athletes,cyclist,medium,strong,positive,8276,people,workerid_0012,TRUE,TRUE,TRUE,cyclist,the cyclist is strong,the cyclist is strong.,1,people,people,people,FALSE,FALSE,FALSE,_people_,_cyclist_,_athletes_,0,0,people,74,74,people
free_class_elicitation,1,7,darkness,David takes a walk and notices the coat of a spaniel.,dogs,spaniel,medium,dark,negative,15225,coats,workerid_0013,TRUE,TRUE,TRUE,spaniel,the spaniel is dark,the spaniel is dark.,1,coats,coats,coat,FALSE,FALSE,FALSE,_coat_,_spaniel_,_dogs_,0,0,coat,48,48,coat
free_class_elicitation,22,74,temperature,Josh steps outside on a day in summer.,seasons,summer,high,cold,negative,3255,days,workerid_0013,TRUE,TRUE,TRUE,summer,the summer is cold,the summer is cold.,1,days,days,day,FALSE,FALSE,FALSE,_day_,_summer_,_seasons_,0,0,day,146,146,day
free_class_elicitation,24,4,darkness,Charles steps outside during the dusk.,times of day,dusk,medium,dark,negative,16543,evenings,workerid_0013,TRUE,TRUE,TRUE,dusk,the dusk is dark,the dusk is dark.,1,evenings,evenings,evenings,FALSE,FALSE,FALSE,_evenings_,_dusk_,_times of day_,0,0,evenings,7,7,evenings
free_class_elicitation,2,69,strength,Alexander is watching a wrestler lift weights.,athletes,wrestler,high,strong,positive,5453,people,workerid_0014,TRUE,TRUE,TRUE,wrestler,the wrestler is strong,the wrestler is strong.,1,people,people,people,FALSE,FALSE,FALSE,_people_,_wrestler_,_athletes_,0,0,people,74,74,people
free_class_elicitation,21,87,width,Melinda is driving on a downtown street.,roads,downtown street,medium,narrow,negative,2773,streets,workerid_0014,TRUE,TRUE,TRUE,downtown,the downtown street is narrow,the downtown street is narrow.,1,streets,streets,streets,FALSE,FALSE,FALSE,_streets_,_downtown_,_roads_,0,0,streets,91,91,streets
free_class_elicitation,25,90,width,Mika is attempting to move furniture through the back door of her house.,doorways,back door,low,wide,positive,6331,furniture,workerid_0014,TRUE,TRUE,TRUE,back,the back door is wide,the back door is wide.,1,furniture,furniture,furniture,FALSE,FALSE,FALSE,_furniture_,_back_,_doorways_,0,0,furniture,49,49,furniture
free_class_elicitation,27,74,temperature,Gary steps outside on a day in summer.,seasons,summer,high,warm,positive,17254,days,workerid_0014,TRUE,TRUE,TRUE,summer,the summer is warm,the summer is warm.,1,days,days,day,FALSE,FALSE,FALSE,_day_,_summer_,_seasons_,0,0,day,146,146,day
free_class_elicitation,4,1,darkness,Gabriel is going for a walk and notices the color of a parrot.,birds,parrot,medium,light,positive,12809,animals,workerid_0015,TRUE,TRUE,TRUE,parrot,the parrot is light,the parrot is light.,1,animals,animals,animals,FALSE,FALSE,FALSE,_animals_,_parrot_,_birds_,0,0,animals,2,2,birds
free_class_elicitation,27,78,weight,Claire is at the zoo and watches a fish being lifted.,animals,fish,low,heavy,positive,13910,things you pick up,workerid_0015,TRUE,TRUE,TRUE,fish,the fish is heavy,the fish is heavy.,4,things you pick-up,things you pick-up,things you pick-up,TRUE,FALSE,FALSE,_things you pick-up_,_fish_,_animals_,0,0,things you pick-up,1,1,animals
free_class_elicitation,34,69,strength,Cameron is watching a golfer lift weights.,athletes,golfer,low,weak,negative,12051,people,workerid_0015,TRUE,TRUE,TRUE,golfer,the golfer is weak,the golfer is weak.,1,people,people,people,FALSE,FALSE,FALSE,_people_,_golfer_,_athletes_,0,0,people,74,74,people
free_class_elicitation,27,83,weight,Gary is at a craft shop and picks up a piece of wool.,materials,wool,high,light,negative,7856,Fabric,workerid_0016,TRUE,TRUE,TRUE,wool,the wool is light,the wool is light.,1,fabric,fabric,fabric,TRUE,FALSE,FALSE,_fabric_,_wool_,_materials_,0,0,fabric,86,86,fabric
free_class_elicitation,32,90,width,John is attempting to move furniture through the patio door of his house.,doorways,patio door,medium,wide,positive,6831,Doors,workerid_0016,TRUE,TRUE,TRUE,patio,the patio door is wide,the patio door is wide.,1,doors,doors,doors,TRUE,FALSE,FALSE,_doors_,_patio_,_doorways_,0,0,doors,69,69,doors
free_class_elicitation,3,66,speed_f,Lucas is at an airport and sees a helicopter in the air.,aircrafts,helicopter,medium,fast,positive,7726,vehicles,workerid_0017,TRUE,TRUE,TRUE,helicopter,the helicopter is fast,the helicopter is fast.,1,vehicles,vehicles,vehicles,FALSE,FALSE,FALSE,_vehicles_,_helicopter_,_aircrafts_,0,0,vehicles,12,12,vehicles
free_class_elicitation,4,90,width,Alexander is attempting to move furniture through the patio door of his house.,doorways,patio door,medium,narrow,negative,16505,the furniture,workerid_0017,TRUE,TRUE,TRUE,patio,the patio door is narrow,the patio door is narrow.,2,the furniture,the furniture,the furniture,FALSE,FALSE,FALSE,_the furniture_,_patio_,_doorways_,0,0,the furniture,1,1,doorways
free_class_elicitation,9,7,darkness,Charles takes a walk and notices the coat of a pitbull.,dogs,pitbull,low,light,positive,8425,coats of animals,workerid_0017,TRUE,TRUE,TRUE,pitbull,the pitbull is light,the pitbull is light.,3,coats of animals,coats of animals,animal coat,FALSE,FALSE,FALSE,_animal coat_,_pitbull_,_dogs_,0,0,animal coat,2,2,dogs
free_class_elicitation,10,29,loudness,Daniel is listening to a rock concert.,concerts,rock concert,high,loud,positive,8479,music,workerid_0017,TRUE,TRUE,TRUE,rock concert,the rock concert is loud,the rock concert is loud.,1,music,music,music,FALSE,FALSE,FALSE,_music_,_rock concert_,_concerts_,0,0,music,15,15,music
free_class_elicitation,11,83,weight,Tanya is at a craft shop and picks up a piece of cotton.,materials,cotton,medium,light,negative,13783,things at the craft shop,workerid_0017,TRUE,TRUE,TRUE,cotton,the cotton is light,the cotton is light.,5,things at the craft shop,things at the craft shop,things,FALSE,FALSE,FALSE,_things_,_cotton_,_materials_,0,0,things,3,3,things
free_class_elicitation,12,69,strength,Kathleen is watching a cyclist lift weights.,athletes,cyclist,medium,weak,negative,8544,other weight lifters,workerid_0017,TRUE,TRUE,TRUE,cyclist,the cyclist is weak,the cyclist is weak.,3,other weight lifters,other weight lifters,weightlifters,FALSE,FALSE,FALSE,_weightlifters_,_cyclist_,_athletes_,0,0,weightlifters,23,23,weightlifters
free_class_elicitation,14,31,loudness_n,Kim is at a friend's place and hears her pet fish.,pets,fish,low,loud,positive,7040,things in the room,workerid_0017,TRUE,TRUE,TRUE,fish,the fish is loud,the fish is loud.,4,things in the room,things in the room,things,FALSE,FALSE,FALSE,_things_,_fish_,_pets_,0,0,things,2,2,pets
free_class_elicitation,21,76,temperature_h,Lee is spending his Saturday at a sauna.,places,sauna,high,hot,positive,4377,environments,workerid_0017,TRUE,TRUE,TRUE,sauna,the sauna is hot,the sauna is hot.,1,environments,environments,environment,FALSE,FALSE,FALSE,_environment_,_sauna_,_places_,0,0,environment,2,2,places
free_class_elicitation,26,3,darkness,Stephanie is at a bakery and looks at the color of a chocolate cake.,cakes,chocolate cake,low,light,positive,5370,food,workerid_0017,TRUE,TRUE,TRUE,chocolate,the chocolate cake is light,the chocolate cake is light.,1,food,food,food,FALSE,FALSE,FALSE,_food_,_chocolate_,_cakes_,0,0,food,2,2,cakes
free_class_elicitation,1,64,speed,Alexander is at a friend's house and sees their pet turtle come towards them.,pets,turtle,low,slow,negative,28887,animals,workerid_0018,TRUE,TRUE,TRUE,turtle,the turtle is slow,the turtle is slow.,1,animals,animals,animals,FALSE,FALSE,FALSE,_animals_,_turtle_,_pets_,0,0,animals,51,51,animals
free_class_elicitation,2,90,width,Josh is attempting to move furniture through the back door of his house.,doorways,back door,low,narrow,negative,17615,places in the house.,workerid_0018,TRUE,TRUE,TRUE,back,the back door is narrow,the back door is narrow.,4,places in the house.,places in the house.,places in the house.,FALSE,FALSE,FALSE,_places in the house._,_back_,_doorways_,0,0,places in the house.,1,1,doorways
free_class_elicitation,7,40,loudness,Tanya wants to play music and tries out an ukelele.,guitars,ukelele,low,loud,positive,51800,instruments.,workerid_0018,TRUE,TRUE,TRUE,ukelele,the ukelele is loud,the ukelele is loud.,1,instruments.,instruments.,instruments.,FALSE,FALSE,FALSE,_instruments._,_ukelele_,_guitars_,0,0,instruments.,2,2,guitars
free_class_elicitation,19,24,length_duration,Charles sees a friend driving a pick-up truck.,vehicles,pick-up truck,medium,long,positive,15863,trucks,workerid_0018,TRUE,TRUE,TRUE,pick-up,the pick-up truck is long,the pick-up truck is long.,1,trucks,trucks,truck,FALSE,FALSE,FALSE,_truck_,_pick-up_,_vehicles_,0,0,truck,45,45,truck
free_class_elicitation,2,74,temperature,Claire steps outside on a day in fall.,seasons,fall,medium,warm,positive,9255,outside,workerid_0019,TRUE,TRUE,TRUE,fall,the fall is warm,the fall is warm.,1,outside,outside,outside,FALSE,FALSE,FALSE,_outside_,_fall_,_seasons_,0,0,outside,2,2,seasons
free_class_elicitation,13,26,length_duration,Simon is looking at a highway on Google Maps.,roads,highway,high,short,negative,8582,google map,workerid_0019,TRUE,TRUE,TRUE,highway,the highway is short,the highway is short.,2,google map,google map,length,FALSE,FALSE,FALSE,_length_,_highway_,_roads_,0,0,length,1,1,roads
free_class_elicitation,24,4,darkness,Monica steps outside during the night.,times of day,night,low,dark,negative,12357,outside,workerid_0019,TRUE,TRUE,TRUE,night,the night is dark,the night is dark.,1,outside,outside,outside,FALSE,FALSE,FALSE,_outside_,_night_,_times of day_,0,0,outside,4,4,outside
free_class_elicitation,32,67,strength,Mika watches a child lift up a box.,people,child,low,strong,positive,5493,box,workerid_0019,TRUE,TRUE,TRUE,child,the child is strong,the child is strong.,1,box,box,box,FALSE,FALSE,FALSE,_box_,_child_,_people_,0,0,box,24,24,box
free_class_elicitation,16,87,width,Simon is driving on a downtown street.,roads,downtown street,medium,narrow,negative,18764,street,workerid_0020,TRUE,TRUE,TRUE,downtown,the downtown street is narrow,the downtown street is narrow.,1,street,street,street,FALSE,FALSE,FALSE,_street_,_downtown_,_roads_,0,0,street,9,9,street
free_class_elicitation,25,50,price,Claire is considering different places for dinner and looks at the menu of a Japanese restaurant.,restaurants,Japanese restaurant,high,cheap,negative,6819,dinner,workerid_0020,TRUE,TRUE,TRUE,japanese,the Japanese restaurant is cheap,the Japanese restaurant is cheap.,1,dinner,dinner,dinner,FALSE,FALSE,FALSE,_dinner_,_japanese_,_restaurants_,0,0,dinner,7,7,dinner
free_class_elicitation,1,61,speed,Robert wants to cook dinner and considers using an instant pot.,cookware,instant pot,high,quick,positive,9950,cooking items,workerid_0021,TRUE,TRUE,TRUE,instant pot,the instant pot is quick,the instant pot is quick.,2,cooking items,cooking items,cooking items,FALSE,FALSE,FALSE,_cooking items_,_instant pot_,_cookware_,0,0,cooking items,1,1,cookware
free_class_elicitation,11,41,price,Kim is at a decoration shop and looks at a statue made of platinum.,statues,platinum,high,cheap,negative,13935,decorations,workerid_0022,TRUE,TRUE,TRUE,platinum,the platinum is cheap,the platinum is cheap.,1,decorations,decorations,decor,FALSE,FALSE,FALSE,_decor_,_platinum_,_statues_,0,0,decor,38,38,decor
free_class_elicitation,19,41,price,Alexander is at a decoration shop and looks at a statue made of plastic.,statues,plastic,low,cheap,negative,8750,decorations,workerid_0022,TRUE,TRUE,TRUE,plastic,the plastic is cheap,the plastic is cheap.,1,decorations,decorations,decor,FALSE,FALSE,FALSE,_decor_,_plastic_,_statues_,0,0,decor,38,38,decor
free_class_elicitation,1,10,hardness,Kim is eating a marshmallow.,candies,marshmallow,low,soft,negative,6528,foods,workerid_0024,TRUE,TRUE,TRUE,marshmallow,the marshmallow is soft,the marshmallow is soft.,1,foods,foods,food,FALSE,FALSE,FALSE,_food_,_marshmallow_,_candies_,0,0,food,32,32,food
free_class_elicitation,3,16,height,Alexander is looking at a strip mall.,buildings,strip mall,low,short,negative,4994,malls,workerid_0024,TRUE,TRUE,TRUE,strip mall,the strip mall is short,the strip mall is short.,1,malls,malls,malls,FALSE,FALSE,FALSE,_malls_,_strip mall_,_buildings_,0,0,malls,34,34,malls
free_class_elicitation,4,81,weight,Melinda is helping a friend move and picks up their trash can.,furniture,trash can,low,light,negative,10612,containers,workerid_0024,TRUE,TRUE,TRUE,trash can,the trash can is light,the trash can is light.,1,containers,containers,containers,FALSE,FALSE,FALSE,_containers_,_trash can_,_furniture_,0,0,containers,2,2,furniture
free_class_elicitation,12,24,length_duration,Lee sees a friend driving a smartcar.,vehicles,smartcar,low,long,positive,4139,cars,workerid_0024,TRUE,TRUE,TRUE,smart,the smartcar is long,the smartcar is long.,1,cars,cars,cars,FALSE,FALSE,FALSE,_cars_,_smart_,_vehicles_,0,0,cars,92,92,cars
free_class_elicitation,13,75,temperature_h,Jennifer is in her kitchen and puts her hand in the pantry.,locations,pantry,medium,cold,negative,6836,rooms,workerid_0024,TRUE,TRUE,TRUE,pantry,the pantry is cold,the pantry is cold.,1,rooms,rooms,rooms,FALSE,FALSE,FALSE,_rooms_,_pantry_,_locations_,0,0,rooms,18,18,rooms
free_class_elicitation,14,47,price,Daniel is shopping for berries and looks at the price of raspberries.,berries,raspberries,medium,cheap,negative,7871,fruits,workerid_0024,TRUE,TRUE,TRUE,raspberries,the raspberries is cheap,the raspberries is cheap.,1,fruits,fruits,fruit,FALSE,FALSE,FALSE,_fruit_,_raspberries_,_berries_,0,0,fruit,62,62,fruit
free_class_elicitation,18,24,length_duration,Anthony sees a friend driving a pick-up truck.,vehicles,pick-up truck,medium,short,negative,5175,trucks,workerid_0024,TRUE,TRUE,TRUE,pick-up,the pick-up truck is short,the pick-up truck is short.,1,trucks,trucks,truck,FALSE,FALSE,FALSE,_truck_,_pick-up_,_vehicles_,0,0,truck,45,45,truck
free_class_elicitation,33,24,length_duration,Claire sees a friend driving a limousine.,vehicles,limousine,high,long,positive,4787,cars,workerid_0024,TRUE,TRUE,TRUE,limo,the limousine is long,the limousine is long.,1,cars,cars,cars,FALSE,FALSE,FALSE,_cars_,_limo_,_vehicles_,0,0,cars,92,92,cars
free_class_elicitation,1,61,speed,Eric wants to cook dinner and considers using a frying pan.,cookware,frying pan,medium,slow,negative,12416,stoves,workerid_0025,TRUE,TRUE,TRUE,frying pan,the frying pan is slow,the frying pan is slow.,1,stoves,stoves,stoves,FALSE,FALSE,FALSE,_stoves_,_frying pan_,_cookware_,0,0,stoves,3,3,stoves
free_class_elicitation,8,90,width,Charles is attempting to move furniture through the patio door of his house.,doorways,patio door,medium,wide,positive,3897,doors,workerid_0025,TRUE,TRUE,TRUE,patio,the patio door is wide,the patio door is wide.,1,doors,doors,doors,FALSE,FALSE,FALSE,_doors_,_patio_,_doorways_,0,0,doors,69,69,doors
free_class_elicitation,8,7,darkness,Kim takes a walk and notices the coat of a spaniel.,dogs,spaniel,medium,dark,negative,13167,coats,workerid_0029,TRUE,TRUE,TRUE,spaniel,the spaniel is dark,the spaniel is dark.,1,coats,coats,coat,FALSE,FALSE,FALSE,_coat_,_spaniel_,_dogs_,0,0,coat,48,48,coat
free_class_elicitation,10,33,loudness_n,Michael is taking a walk in a park and hears the cry of a finch.,birds,finch,low,quiet,negative,22959,parks,workerid_0030,TRUE,TRUE,TRUE,finch,the finch is quiet,the finch is quiet.,1,parks,parks,park,FALSE,FALSE,FALSE,_park_,_finch_,_birds_,0,0,park,25,25,park
free_class_elicitation,13,30,loudness_n,Natalia meets a friend at a party.,venue,party,high,noisy,positive,12485,places,workerid_0030,TRUE,TRUE,TRUE,party,the party is noisy,the party is noisy.,1,places,places,places,FALSE,FALSE,FALSE,_places_,_party_,_venue_,0,0,places,44,44,places
free_class_elicitation,34,74,temperature,Julia steps outside on a day in winter.,seasons,winter,low,warm,positive,9105,days,workerid_0030,TRUE,TRUE,TRUE,winter,the winter is warm,the winter is warm.,1,days,days,day,FALSE,FALSE,FALSE,_day_,_winter_,_seasons_,0,0,day,146,146,day
free_class_elicitation,1,31,loudness_n,Mika is at a friend's place and hears her pet parrot.,pets,parrot,high,quiet,negative,32606,birds,workerid_0031,TRUE,TRUE,TRUE,parrot,the parrot is quiet,the parrot is quiet.,1,birds,birds,birdss,FALSE,FALSE,FALSE,_birdss_,_parrot_,_pets_,0,0,birdss,24,24,birdss
free_class_elicitation,12,47,price,Greg is shopping for berries and looks at the price of boysenberries.,berries,boysenberries,high,cheap,negative,11589,fruits,workerid_0031,TRUE,TRUE,TRUE,boysenberries,the boysenberries is cheap,the boysenberries is cheap.,1,fruits,fruits,fruit,FALSE,FALSE,FALSE,_fruit_,_boysenberries_,_berries_,0,0,fruit,62,62,fruit
free_class_elicitation,13,83,weight,Cameron is at a craft shop and picks up a piece of silk.,materials,silk,low,light,negative,8719,fabrics,workerid_0031,TRUE,TRUE,TRUE,silk,the silk is light,the silk is light.,1,fabrics,fabrics,fabric,FALSE,FALSE,FALSE,_fabric_,_silk_,_materials_,0,0,fabric,86,86,fabric
free_class_elicitation,19,40,loudness,Kathleen wants to play music and tries out an ukelele.,guitars,ukelele,low,loud,positive,10313,instruments,workerid_0031,TRUE,TRUE,TRUE,ukelele,the ukelele is loud,the ukelele is loud.,1,instruments,instruments,instruments,FALSE,FALSE,FALSE,_instruments_,_ukelele_,_guitars_,0,0,instruments,120,120,instruments
free_class_elicitation,21,74,temperature,Melinda steps outside on a day in fall.,seasons,fall,medium,warm,positive,11338,days,workerid_0031,TRUE,TRUE,TRUE,fall,the fall is warm,the fall is warm.,1,days,days,day,FALSE,FALSE,FALSE,_day_,_fall_,_seasons_,0,0,day,146,146,day
free_class_elicitation,22,64,speed,Daniel is at a friend's house and sees their pet cat come towards them.,pets,cat,medium,quick,positive,12432,animals,workerid_0031,TRUE,TRUE,TRUE,cat,the cat is quick,the cat is quick.,1,animals,animals,animals,FALSE,FALSE,FALSE,_animals_,_cat_,_pets_,0,0,animals,51,51,animals
free_class_elicitation,24,41,price,Julia is at a decoration shop and looks at a statue made of bronze.,statues,bronze,medium,expensive,positive,20510,merchandise,workerid_0031,TRUE,TRUE,TRUE,bronze,the bronze is expensive,the bronze is expensive.,1,merchandise,merchandise,items,FALSE,FALSE,FALSE,_items_,_bronze_,_statues_,0,0,items,3,3,items
free_class_elicitation,25,40,loudness,John wants to play music and tries out a bass guitar.,guitars,bass guitar,high,loud,positive,7352,instruments,workerid_0031,TRUE,TRUE,TRUE,bass,the bass guitar is loud,the bass guitar is loud.,1,instruments,instruments,instruments,FALSE,FALSE,FALSE,_instruments_,_bass_,_guitars_,0,0,instruments,120,120,instruments
free_class_elicitation,27,30,loudness_n,Charles meets a friend at a conference center.,venue,conference center,medium,quiet,negative,12538,rooms,workerid_0031,TRUE,TRUE,TRUE,conference center,the conference center is quiet,the conference center is quiet.,1,rooms,rooms,rooms,FALSE,FALSE,FALSE,_rooms_,_conference center_,_venue_,0,0,rooms,21,21,rooms
free_class_elicitation,29,16,height,Stephen is looking at a strip mall.,buildings,strip mall,low,tall,positive,11019,malls,workerid_0031,TRUE,TRUE,TRUE,strip mall,the strip mall is tall,the strip mall is tall.,1,malls,malls,malls,FALSE,FALSE,FALSE,_malls_,_strip mall_,_buildings_,0,0,malls,34,34,malls
free_class_elicitation,30,56,size,Kim sees her friend's new smartcar.,vehicles,smartcar,low,small,negative,6982,cars,workerid_0031,TRUE,TRUE,TRUE,smart,the smartcar is small,the smartcar is small.,1,cars,cars,cars,FALSE,FALSE,FALSE,_cars_,_smart_,_vehicles_,0,0,cars,117,117,cars
free_class_elicitation,2,74,temperature,Daniel steps outside on a day in fall.,seasons,fall,medium,warm,positive,23097,Times of the day,workerid_0032,TRUE,TRUE,TRUE,fall,the fall is warm,the fall is warm.,4,times of the day,times of day,times of day,TRUE,TRUE,FALSE,_times of day_,_fall_,_seasons_,0,0,times of day,1,1,seasons
free_class_elicitation,3,41,price,Charles is at a decoration shop and looks at a statue made of plastic.,statues,plastic,low,expensive,positive,27647,decorations they plan to buy,workerid_0032,TRUE,TRUE,TRUE,plastic,the plastic is expensive,the plastic is expensive.,5,decorations they plan to buy,decorations they plan to buy,decor,FALSE,FALSE,FALSE,_decor_,_plastic_,_statues_,0,0,decor,38,38,decor
free_class_elicitation,7,10,hardness,Alexander is eating a marshmallow.,candies,marshmallow,low,soft,negative,9818,desserts,workerid_0032,TRUE,TRUE,TRUE,marshmallow,the marshmallow is soft,the marshmallow is soft.,1,desserts,desserts,desserts,FALSE,FALSE,FALSE,_desserts_,_marshmallow_,_candies_,0,0,desserts,1,1,candies
free_class_elicitation,19,83,weight,Stephen is at a craft shop and picks up a piece of silk.,materials,silk,low,light,negative,20439,commodities,workerid_0032,TRUE,TRUE,TRUE,silk,the silk is light,the silk is light.,1,commodities,commodities,commodities,FALSE,FALSE,FALSE,_commodities_,_silk_,_materials_,0,0,commodities,1,1,materials
free_class_elicitation,22,72,temperature,Kim takes the first bite of her ice cream.,food,ice cream,low,cold,negative,14665,desserts,workerid_0032,TRUE,TRUE,TRUE,ice cream,the ice cream is cold,the ice cream is cold.,1,desserts,desserts,desserts,FALSE,FALSE,FALSE,_desserts_,_ice cream_,_food_,0,0,desserts,3,3,desserts
free_class_elicitation,33,62,speed_f,Lee sees a motorcycle on the highway.,vehicles,motorcycle,high,slow,negative,15141,speed in the highway,workerid_0032,TRUE,TRUE,TRUE,motorcycle,the motorcycle is slow,the motorcycle is slow.,4,speed in the highway,speed in the highway,speed,FALSE,FALSE,FALSE,_speed_,_motorcycle_,_vehicles_,0,0,speed,1,1,vehicles
free_class_elicitation,34,47,price,Angela is shopping for berries and looks at the price of raspberries.,berries,raspberries,medium,expensive,positive,19753,prices of fruits,workerid_0032,TRUE,TRUE,TRUE,raspberries,the raspberries is expensive,the raspberries is expensive.,3,prices of fruits,prices of fruits,price,FALSE,FALSE,FALSE,_price_,_raspberries_,_berries_,0,0,price,3,3,price
free_class_elicitation,9,40,loudness,Michelle wants to play music and tries out an ukelele.,guitars,ukelele,low,loud,positive,10807,musical instruments,workerid_0033,TRUE,TRUE,TRUE,ukelele,the ukelele is loud,the ukelele is loud.,2,musical instruments,musical instruments,instruments,FALSE,FALSE,FALSE,_instruments_,_ukelele_,_guitars_,0,0,instruments,120,120,instruments
free_class_elicitation,12,90,width,Melinda is attempting to move furniture through the front gate of her house.,doorways,front gate,high,wide,positive,12675,furniture,workerid_0033,TRUE,TRUE,TRUE,front gate,the front gate is wide,the front gate is wide.,1,furniture,furniture,furniture,FALSE,FALSE,FALSE,_furniture_,_front gate_,_doorways_,0,0,furniture,49,49,furniture
free_class_elicitation,18,83,weight,Jasmine is at a craft shop and picks up a piece of cotton.,materials,cotton,medium,light,negative,5914,fabrics,workerid_0033,TRUE,TRUE,TRUE,cotton,the cotton is light,the cotton is light.,1,fabrics,fabrics,fabric,FALSE,FALSE,FALSE,_fabric_,_cotton_,_materials_,0,0,fabric,86,86,fabric
free_class_elicitation,25,83,weight,Tom is at a craft shop and picks up a piece of silk.,materials,silk,low,heavy,positive,6817,fabric,workerid_0033,TRUE,TRUE,TRUE,silk,the silk is heavy,the silk is heavy.,1,fabric,fabric,fabric,FALSE,FALSE,FALSE,_fabric_,_silk_,_materials_,0,0,fabric,86,86,fabric
free_class_elicitation,27,30,loudness_n,David meets a friend at a conference center.,venue,conference center,medium,noisy,positive,8319,rooms,workerid_0033,TRUE,TRUE,TRUE,conference center,the conference center is noisy,the conference center is noisy.,1,rooms,rooms,rooms,FALSE,FALSE,FALSE,_rooms_,_conference center_,_venue_,0,0,rooms,21,21,rooms
free_class_elicitation,30,47,price,Gabriel is shopping for berries and looks at the price of strawberries.,berries,strawberries,low,expensive,positive,4403,fruit,workerid_0033,TRUE,TRUE,TRUE,strawberries,the strawberries is expensive,the strawberries is expensive.,1,fruit,fruit,fruit,FALSE,FALSE,FALSE,_fruit_,_strawberries_,_berries_,0,0,fruit,62,62,fruit
free_class_elicitation,11,39,loudness_n,Julia is at a lake and hears the sound of a powerboat.,boats,powerboat,high,loud,positive,11394,sounds,workerid_0034,TRUE,TRUE,TRUE,powerboat,the powerboat is loud,the powerboat is loud.,1,sounds,sounds,sound,FALSE,FALSE,FALSE,_sound_,_powerboat_,_boats_,0,0,sound,12,12,sound
free_class_elicitation,12,24,length_duration,Angela sees a friend driving a smartcar.,vehicles,smartcar,low,long,positive,6371,cars,workerid_0034,TRUE,TRUE,TRUE,smart,the smartcar is long,the smartcar is long.,1,cars,cars,cars,FALSE,FALSE,FALSE,_cars_,_smart_,_vehicles_,0,0,cars,92,92,cars
free_class_elicitation,23,30,loudness_n,Lucas meets a friend at a conference center.,venue,conference center,medium,quiet,negative,15669,places,workerid_0034,TRUE,TRUE,TRUE,conference center,the conference center is quiet,the conference center is quiet.,1,places,places,places,FALSE,FALSE,FALSE,_places_,_conference center_,_venue_,0,0,places,44,44,places
free_class_elicitation,26,40,loudness,Maya wants to play music and tries out a bass guitar.,guitars,bass guitar,high,loud,positive,11827,instruments,workerid_0034,TRUE,TRUE,TRUE,bass,the bass guitar is loud,the bass guitar is loud.,1,instruments,instruments,instruments,FALSE,FALSE,FALSE,_instruments_,_bass_,_guitars_,0,0,instruments,120,120,instruments
free_class_elicitation,32,84,weight,Veronica learns about the weight of a friend's new truck.,vehicles,truck,high,heavy,positive,6736,cars,workerid_0034,TRUE,TRUE,TRUE,truck,the truck is heavy,the truck is heavy.,1,cars,cars,cars,FALSE,FALSE,FALSE,_cars_,_truck_,_vehicles_,0,0,cars,4,4,cars
free_class_elicitation,33,69,strength,Michael is watching a cyclist lift weights.,athletes,cyclist,medium,strong,positive,7090,people,workerid_0034,TRUE,TRUE,TRUE,cyclist,the cyclist is strong,the cyclist is strong.,1,people,people,people,FALSE,FALSE,FALSE,_people_,_cyclist_,_athletes_,0,0,people,74,74,people
free_class_elicitation,34,90,width,David is attempting to move furniture through the patio door of his house.,doorways,patio door,medium,wide,positive,15934,doors,workerid_0034,TRUE,TRUE,TRUE,patio,the patio door is wide,the patio door is wide.,1,doors,doors,doors,FALSE,FALSE,FALSE,_doors_,_patio_,_doorways_,0,0,doors,69,69,doors
free_class_elicitation,3,56,size,Claire sees her friend's new smartcar.,vehicles,smartcar,low,small,negative,8243,automobiles,workerid_0035,TRUE,TRUE,TRUE,smart,the smartcar is small,the smartcar is small.,1,automobiles,cars,cars,FALSE,TRUE,FALSE,_cars_,_smart_,_vehicles_,0,0,cars,117,117,cars
free_class_elicitation,4,83,weight,Kim is at a craft shop and picks up a piece of wool.,materials,wool,high,heavy,positive,14431,types of cloth,workerid_0035,TRUE,TRUE,TRUE,wool,the wool is heavy,the wool is heavy.,3,types of cloth,types of cloth,cloth,FALSE,FALSE,FALSE,_fabric_,_wool_,_materials_,0,0,fabric,86,86,fabric
free_class_elicitation,22,86,width,Sophie is in a forest and sees a bear den.,dens,bear den,high,narrow,negative,8986,spaces,workerid_0035,TRUE,TRUE,TRUE,bear,the bear den is narrow,the bear den is narrow.,1,spaces,spaces,spaces,FALSE,FALSE,FALSE,_spaces_,_bear_,_dens_,0,0,spaces,3,3,spaces
free_class_elicitation,30,53,size,Monica is looking in an insect terrarium and sees a spider.,insects,spider,high,small,negative,17744,things in the terrarium,workerid_0035,TRUE,TRUE,TRUE,spider,the spider is small,the spider is small.,4,things in the terrarium,things in the terrarium,things,FALSE,FALSE,FALSE,_things_,_spider_,_insects_,0,0,things,1,1,insects
free_class_elicitation,10,41,price,Jennifer is at a decoration shop and looks at a statue made of bronze.,statues,bronze,medium,cheap,negative,11463,decorations,workerid_0036,TRUE,TRUE,TRUE,bronze,the bronze is cheap,the bronze is cheap.,1,decorations,decorations,decor,FALSE,FALSE,FALSE,_decor_,_bronze_,_statues_,0,0,decor,38,38,decor
free_class_elicitation,34,90,width,Josh is attempting to move furniture through the patio door of his house.,doorways,patio door,medium,wide,positive,6570,doors,workerid_0036,TRUE,TRUE,TRUE,patio,the patio door is wide,the patio door is wide.,1,doors,doors,doors,FALSE,FALSE,FALSE,_doors_,_patio_,_doorways_,0,0,doors,69,69,doors
free_class_elicitation,23,83,weight,Eric is at a craft shop and picks up a piece of silk.,materials,silk,low,heavy,positive,8823,fabric,workerid_0037,TRUE,TRUE,TRUE,silk,the silk is heavy,the silk is heavy.,1,fabric,fabric,fabric,FALSE,FALSE,FALSE,_fabric_,_silk_,_materials_,0,0,fabric,86,86,fabric
free_class_elicitation,28,90,width,Alicia is attempting to move furniture through the patio door of her house.,doorways,patio door,medium,wide,positive,5696,doors,workerid_0037,TRUE,TRUE,TRUE,patio,the patio door is wide,the patio door is wide.,1,doors,doors,doors,FALSE,FALSE,FALSE,_doors_,_patio_,_doorways_,0,0,doors,69,69,doors
free_class_elicitation,4,31,loudness_n,Mika is at a friend's place and hears her pet parrot.,pets,parrot,high,loud,positive,5047,birds,workerid_0039,TRUE,TRUE,TRUE,parrot,the parrot is loud,the parrot is loud.,1,birds,birds,birdss,FALSE,FALSE,FALSE,_birdss_,_parrot_,_pets_,0,0,birdss,24,24,birdss
free_class_elicitation,11,90,width,John is attempting to move furniture through the front gate of his house.,doorways,front gate,high,wide,positive,10379,furniture,workerid_0039,TRUE,TRUE,TRUE,front gate,the front gate is wide,the front gate is wide.,1,furniture,furniture,furniture,FALSE,FALSE,FALSE,_furniture_,_front gate_,_doorways_,0,0,furniture,49,49,furniture
free_class_elicitation,2,86,width,Alexander is in a forest and sees a bear den.,dens,bear den,high,narrow,negative,43592,forest spaces,workerid_0040,TRUE,TRUE,TRUE,bear,the bear den is narrow,the bear den is narrow.,2,forest spaces,forest spaces,forest,FALSE,FALSE,FALSE,_forest_,_bear_,_dens_,0,0,forest,5,5,forest
free_class_elicitation,7,89,width,David is walking on a boulevard.,roads,boulevard,high,wide,positive,25893,walkways,workerid_0040,TRUE,TRUE,TRUE,boulevard,the boulevard is wide,the boulevard is wide.,1,walkways,walkways,walkways,FALSE,FALSE,FALSE,_walkways_,_boulevard_,_roads_,0,0,walkways,3,3,walkways
free_class_elicitation,8,31,loudness_n,Jasmine is at a friend's place and hears her pet fish.,pets,fish,low,quiet,negative,17208,noises,workerid_0040,TRUE,TRUE,TRUE,fish,the fish is quiet,the fish is quiet.,1,noises,noises,noise,FALSE,FALSE,FALSE,_noise_,_fish_,_pets_,0,0,noise,3,3,noise
free_class_elicitation,9,81,weight,Veronica is helping a friend move and picks up their chair.,furniture,chair,medium,heavy,positive,10174,objects,workerid_0040,TRUE,TRUE,TRUE,chair,the chair is heavy,the chair is heavy.,1,objects,objects,objects,FALSE,FALSE,FALSE,_objects_,_chair_,_furniture_,0,0,objects,12,12,objects
free_class_elicitation,12,32,loudness_n,Anthony is spending his Saturday night at a library.,venues,library,low,quiet,negative,15491,locations,workerid_0040,TRUE,TRUE,TRUE,library,the library is quiet,the library is quiet.,1,locations,locations,locations,FALSE,FALSE,FALSE,_locations_,_library_,_venues_,0,0,locations,3,3,locations
free_class_elicitation,13,89,width,Eric is walking on a boulevard.,roads,boulevard,high,narrow,negative,11604,walkways,workerid_0040,TRUE,TRUE,TRUE,boulevard,the boulevard is narrow,the boulevard is narrow.,1,walkways,walkways,walkways,FALSE,FALSE,FALSE,_walkways_,_boulevard_,_roads_,0,0,walkways,3,3,walkways
free_class_elicitation,21,76,temperature_h,Simon is spending his Saturday at an ice rink.,places,ice rink,low,cold,negative,7768,locations,workerid_0040,TRUE,TRUE,TRUE,ice rink,the ice rink is cold,the ice rink is cold.,1,locations,locations,locations,FALSE,FALSE,FALSE,_locations_,_ice rink_,_places_,0,0,locations,8,8,locations
free_class_elicitation,3,56,size,Monica sees her friend's new smartcar.,vehicles,smartcar,low,small,negative,25766,cars,workerid_0041,TRUE,TRUE,TRUE,smart,the smartcar is small,the smartcar is small.,1,cars,cars,cars,FALSE,FALSE,FALSE,_cars_,_smart_,_vehicles_,0,0,cars,117,117,cars
free_class_elicitation,6,29,loudness,Robert is listening to a choral concert.,concerts,choral concert,low,loud,positive,91887,noise,workerid_0041,TRUE,TRUE,TRUE,choral,the choral concert is loud,the choral concert is loud.,1,noise,noise,noise,FALSE,FALSE,FALSE,_noise_,_choral_,_concerts_,0,0,noise,3,3,noise
free_class_elicitation,13,83,weight,Cameron is at a craft shop and picks up a piece of wool.,materials,wool,high,heavy,positive,20815,fabrics,workerid_0041,TRUE,TRUE,TRUE,wool,the wool is heavy,the wool is heavy.,1,fabrics,fabrics,fabric,FALSE,FALSE,FALSE,_fabric_,_wool_,_materials_,0,0,fabric,86,86,fabric
free_class_elicitation,16,45,price,Natalia wants to buy a bracelet and looks at one made of gold.,bracelets,gold,high,cheap,negative,39647,jewelry,workerid_0041,TRUE,TRUE,TRUE,gold,the gold is cheap,the gold is cheap.,1,jewelry,jewelry,jewelry,FALSE,FALSE,FALSE,_jewelry_,_gold_,_bracelets_,0,0,jewelry,19,19,jewelry
free_class_elicitation,17,35,loudness,Tanya is in a room with a teenager.,people,teenager,medium,quiet,negative,18814,children,workerid_0041,TRUE,TRUE,TRUE,teenager,the teenager is quiet,the teenager is quiet.,1,children,children,babyren,FALSE,FALSE,FALSE,_babyren_,_teenager_,_people_,0,0,babyren,1,1,people
free_class_elicitation,19,33,loudness_n,Jennifer is taking a walk in a park and hears the cry of a rooster.,birds,rooster,high,loud,positive,13756,animals,workerid_0041,TRUE,TRUE,TRUE,rooster,the rooster is loud,the rooster is loud.,1,animals,animals,animals,FALSE,FALSE,FALSE,_animals_,_rooster_,_birds_,0,0,animals,13,13,animals
free_class_elicitation,26,40,loudness,Anthony wants to play music and tries out an ukelele.,guitars,ukelele,low,quiet,negative,12868,instruments,workerid_0041,TRUE,TRUE,TRUE,ukelele,the ukelele is quiet,the ukelele is quiet.,1,instruments,instruments,instruments,FALSE,FALSE,FALSE,_instruments_,_ukelele_,_guitars_,0,0,instruments,120,120,instruments
free_class_elicitation,28,83,weight,Kim is at a craft shop and picks up a piece of silk.,materials,silk,low,light,negative,8954,fabrics,workerid_0041,TRUE,TRUE,TRUE,silk,the silk is light,the silk is light.,1,fabrics,fabrics,fabric,FALSE,FALSE,FALSE,_fabric_,_silk_,_materials_,0,0,fabric,86,86,fabric
free_class_elicitation,33,56,size,Maya sees her friend's new sedan.,vehicles,sedan,medium,small,negative,9858,cars,workerid_0041,TRUE,TRUE,TRUE,sedan,the sedan is small,the sedan is small.,1,cars,cars,cars,FALSE,FALSE,FALSE,_cars_,_sedan_,_vehicles_,0,0,cars,117,117,cars
free_class_elicitation,36,66,speed_f,Kathleen is at an airport and sees a helicopter in the air.,aircrafts,helicopter,medium,slow,negative,22333,vehicles,workerid_0041,TRUE,TRUE,TRUE,helicopter,the helicopter is slow,the helicopter is slow.,1,vehicles,vehicles,vehicles,FALSE,FALSE,FALSE,_vehicles_,_helicopter_,_aircrafts_,0,0,vehicles,12,12,vehicles
free_class_elicitation,10,74,temperature,Anthony steps outside on a day in winter.,seasons,winter,low,warm,positive,32036,days,workerid_0042,TRUE,TRUE,TRUE,winter,the winter is warm,the winter is warm.,1,days,days,day,FALSE,FALSE,FALSE,_day_,_winter_,_seasons_,0,0,day,146,146,day
free_class_elicitation,11,41,price,Eric is at a decoration shop and looks at a statue made of plastic.,statues,plastic,low,expensive,positive,35287,decorations,workerid_0042,TRUE,TRUE,TRUE,plastic,the plastic is expensive,the plastic is expensive.,1,decorations,decorations,decor,FALSE,FALSE,FALSE,_decor_,_plastic_,_statues_,0,0,decor,38,38,decor
free_class_elicitation,31,30,loudness_n,Robert meets a friend at a party.,venue,party,high,noisy,positive,23334,places,workerid_0042,TRUE,TRUE,TRUE,party,the party is noisy,the party is noisy.,1,places,places,places,FALSE,FALSE,FALSE,_places_,_party_,_venue_,0,0,places,44,44,places
free_class_elicitation,7,74,temperature,Maya steps outside on a day in summer.,seasons,summer,high,warm,positive,12159,days,workerid_0043,TRUE,TRUE,TRUE,summer,the summer is warm,the summer is warm.,1,days,days,day,FALSE,FALSE,FALSE,_day_,_summer_,_seasons_,0,0,day,146,146,day
free_class_elicitation,9,41,price,Jasmine is at a decoration shop and looks at a statue made of plastic.,statues,plastic,low,expensive,positive,23287,decorations,workerid_0043,TRUE,TRUE,TRUE,plastic,the plastic is expensive,the plastic is expensive.,1,decorations,decorations,decor,FALSE,FALSE,FALSE,_decor_,_plastic_,_statues_,0,0,decor,38,38,decor
free_class_elicitation,25,4,darkness,Lee steps outside during the dusk.,times of day,dusk,medium,dark,negative,19039,nights,workerid_0043,TRUE,TRUE,TRUE,dusk,the dusk is dark,the dusk is dark.,1,nights,nights,nights,FALSE,FALSE,FALSE,_nights_,_dusk_,_times of day_,0,0,nights,5,5,nights
free_class_elicitation,31,41,price,Simon is at a decoration shop and looks at a statue made of bronze.,statues,bronze,medium,expensive,positive,19224,decorations,workerid_0043,TRUE,TRUE,TRUE,bronze,the bronze is expensive,the bronze is expensive.,1,decorations,decorations,decor,FALSE,FALSE,FALSE,_decor_,_bronze_,_statues_,0,0,decor,38,38,decor
free_class_elicitation,27,83,weight,Mika is at a craft shop and picks up a piece of silk.,materials,silk,low,light,negative,17044,fabrics,workerid_0045,TRUE,TRUE,TRUE,silk,the silk is light,the silk is light.,1,fabrics,fabrics,fabric,FALSE,FALSE,FALSE,_fabric_,_silk_,_materials_,0,0,fabric,86,86,fabric
free_class_elicitation,2,31,loudness_n,John is at a friend's place and hears his pet cat.,pets,cat,medium,quiet,negative,93714,homes,workerid_0046,TRUE,TRUE,TRUE,cat,the cat is quiet,the cat is quiet.,1,homes,homes,house,FALSE,FALSE,FALSE,_house_,_cat_,_pets_,0,0,house,2,2,pets
free_class_elicitation,4,29,loudness,David is listening to a rock concert.,concerts,rock concert,high,loud,positive,35705,public areas,workerid_0046,TRUE,TRUE,TRUE,rock concert,the rock concert is loud,the rock concert is loud.,2,public areas,public areas,areas,FALSE,FALSE,FALSE,_areas_,_rock concert_,_concerts_,0,0,areas,1,1,concerts
free_class_elicitation,6,62,speed_f,Simon sees a truck on the highway.,vehicles,truck,low,slow,negative,10996,cars,workerid_0046,TRUE,TRUE,TRUE,truck,the truck is slow,the truck is slow.,1,cars,cars,cars,FALSE,FALSE,FALSE,_cars_,_truck_,_vehicles_,0,0,cars,5,5,cars
free_class_elicitation,7,59,speed,Lee is in the park and sees a jogger.,people,jogger,medium,fast,positive,9128,runners,workerid_0046,TRUE,TRUE,TRUE,jogger,the jogger is fast,the jogger is fast.,1,runners,runners,runners,FALSE,FALSE,FALSE,_runners_,_jogger_,_people_,0,0,runners,10,10,runners
free_class_elicitation,9,90,width,Angela is attempting to move furniture through the front gate of her house.,doorways,front gate,high,wide,positive,13765,furniture,workerid_0046,TRUE,TRUE,TRUE,front gate,the front gate is wide,the front gate is wide.,1,furniture,furniture,furniture,FALSE,FALSE,FALSE,_furniture_,_front gate_,_doorways_,0,0,furniture,49,49,furniture
free_class_elicitation,12,74,temperature,Michelle steps outside on a day in winter.,seasons,winter,low,cold,negative,15673,days,workerid_0046,TRUE,TRUE,TRUE,winter,the winter is cold,the winter is cold.,1,days,days,day,FALSE,FALSE,FALSE,_day_,_winter_,_seasons_,0,0,day,146,146,day
free_class_elicitation,13,47,price,Alicia is shopping for berries and looks at the price of strawberries.,berries,strawberries,low,cheap,negative,11802,fruit,workerid_0046,TRUE,TRUE,TRUE,strawberries,the strawberries is cheap,the strawberries is cheap.,1,fruit,fruit,fruit,FALSE,FALSE,FALSE,_fruit_,_strawberries_,_berries_,0,0,fruit,62,62,fruit
free_class_elicitation,14,38,loudness,Jennifer is in a forest and hears a woodpecker.,birds,woodpecker,medium,quiet,negative,13314,places,workerid_0046,TRUE,TRUE,TRUE,woodpecker,the woodpecker is quiet,the woodpecker is quiet.,1,places,places,places,FALSE,FALSE,FALSE,_places_,_woodpecker_,_birds_,0,0,places,12,12,places
free_class_elicitation,32,38,loudness,Melinda is in a forest and hears a mockingbird .,birds,mockingbird,high,quiet,negative,25379,areas,workerid_0046,TRUE,TRUE,TRUE,mockingbird,the mockingbird is quiet,the mockingbird is quiet.,1,areas,areas,areas,FALSE,FALSE,FALSE,_areas_,_mockingbird_,_birds_,0,0,areas,2,2,birds
free_class_elicitation,35,88,width,Laura is standing at the bank of a stream.,waterways,stream,medium,wide,positive,28284,rivers,workerid_0046,TRUE,TRUE,TRUE,stream,the stream is wide,the stream is wide.,1,rivers,rivers,rivers,FALSE,FALSE,FALSE,_rivers_,_stream_,_waterways_,0,0,rivers,8,8,rivers
free_class_elicitation,16,27,length_duration,Josh looks up information about an upcoming relay race.,races,relay race,medium,short,negative,21327,the race,workerid_0048,TRUE,TRUE,TRUE,relay,the relay race is short,the relay race is short.,2,the race,the race,the race,FALSE,FALSE,FALSE,_the race_,_relay_,_races_,0,0,the race,1,1,races
free_class_elicitation,20,83,weight,Eric is at a craft shop and picks up a piece of wool.,materials,wool,high,light,negative,16551,items in the craft shop,workerid_0048,TRUE,TRUE,TRUE,wool,the wool is light,the wool is light.,5,items in the craft shop,items in the craft shop,items in the craft shop,FALSE,FALSE,FALSE,_items in the craft shop_,_wool_,_materials_,0,0,items in the craft shop,1,1,materials
free_class_elicitation,26,24,length_duration,Monica sees a friend driving a smartcar.,vehicles,smartcar,low,long,positive,7992,cars,workerid_0048,TRUE,TRUE,TRUE,smart,the smartcar is long,the smartcar is long.,1,cars,cars,cars,FALSE,FALSE,FALSE,_cars_,_smart_,_vehicles_,0,0,cars,92,92,cars
free_class_elicitation,4,10,hardness,Gary is eating a marshmallow.,candies,marshmallow,low,soft,negative,9107,food,workerid_0049,TRUE,TRUE,TRUE,marshmallow,the marshmallow is soft,the marshmallow is soft.,1,food,food,food,FALSE,FALSE,FALSE,_food_,_marshmallow_,_candies_,0,0,food,32,32,food
free_class_elicitation,5,24,length_duration,Lee sees a friend driving a pick-up truck.,vehicles,pick-up truck,medium,long,positive,8663,trucks,workerid_0049,TRUE,TRUE,TRUE,pick-up,the pick-up truck is long,the pick-up truck is long.,1,trucks,trucks,truck,FALSE,FALSE,FALSE,_truck_,_pick-up_,_vehicles_,0,0,truck,45,45,truck
free_class_elicitation,11,24,length_duration,Laura sees a friend driving a pick-up truck.,vehicles,pick-up truck,medium,short,negative,8976,trucks,workerid_0049,TRUE,TRUE,TRUE,pick-up,the pick-up truck is short,the pick-up truck is short.,1,trucks,trucks,truck,FALSE,FALSE,FALSE,_truck_,_pick-up_,_vehicles_,0,0,truck,45,45,truck
free_class_elicitation,12,7,darkness,Anthony takes a walk and notices the coat of a poodle.,dogs,poodle,high,dark,negative,10654,coats,workerid_0049,TRUE,TRUE,TRUE,poodle,the poodle is dark,the poodle is dark.,1,coats,coats,coat,FALSE,FALSE,FALSE,_coat_,_poodle_,_dogs_,0,0,coat,48,48,coat
free_class_elicitation,21,74,temperature,Mika steps outside on a day in winter.,seasons,winter,low,warm,positive,8945,days,workerid_0049,TRUE,TRUE,TRUE,winter,the winter is warm,the winter is warm.,1,days,days,day,FALSE,FALSE,FALSE,_day_,_winter_,_seasons_,0,0,day,146,146,day
free_class_elicitation,6,40,loudness,Sophie wants to play music and tries out an ukelele.,guitars,ukelele,low,quiet,negative,12118,instruments,workerid_0050,TRUE,TRUE,TRUE,ukelele,the ukelele is quiet,the ukelele is quiet.,1,instruments,instruments,instruments,FALSE,FALSE,FALSE,_instruments_,_ukelele_,_guitars_,0,0,instruments,120,120,instruments
free_class_elicitation,8,34,loudness_n,Veronica is listening to a friend playing the harp.,instruments,harp,low,quiet,negative,19727,sounds,workerid_0050,TRUE,TRUE,TRUE,harp,the harp is quiet,the harp is quiet.,1,sounds,sounds,sound,FALSE,FALSE,FALSE,_sound_,_harp_,_instruments_,0,0,sound,14,14,sound
free_class_elicitation,12,44,price,Charles is shopping for spices and looks at garlic.,spices,garlic,medium,expensive,positive,16924,items,workerid_0050,TRUE,TRUE,TRUE,garlic,the garlic is expensive,the garlic is expensive.,1,items,items,items,FALSE,FALSE,FALSE,_items_,_garlic_,_spices_,0,0,items,1,1,spices
free_class_elicitation,14,69,strength,Julia is watching a cyclist lift weights.,athletes,cyclist,medium,weak,negative,21941,people,workerid_0050,TRUE,TRUE,TRUE,cyclist,the cyclist is weak,the cyclist is weak.,1,people,people,people,FALSE,FALSE,FALSE,_people_,_cyclist_,_athletes_,0,0,people,74,74,people
free_class_elicitation,23,56,size,Daniel sees his friend's new smartcar.,vehicles,smartcar,low,small,negative,8132,cars,workerid_0050,TRUE,TRUE,TRUE,smart,the smartcar is small,the smartcar is small.,1,cars,cars,cars,FALSE,FALSE,FALSE,_cars_,_smart_,_vehicles_,0,0,cars,117,117,cars
free_class_elicitation,3,33,loudness_n,Melinda is taking a walk in a park and hears the cry of a rooster.,birds,rooster,high,loud,positive,13506,park sounds,workerid_0051,TRUE,TRUE,TRUE,rooster,the rooster is loud,the rooster is loud.,2,park sounds,park sounds,sound,FALSE,FALSE,FALSE,_sound_,_rooster_,_birds_,0,0,sound,13,13,sound
free_class_elicitation,3,30,loudness_n,Josh meets a friend at a party.,venue,party,high,noisy,positive,11860,places,workerid_0052,TRUE,TRUE,TRUE,party,the party is noisy,the party is noisy.,1,places,places,places,FALSE,FALSE,FALSE,_places_,_party_,_venue_,0,0,places,44,44,places
free_class_elicitation,7,7,darkness,Claire takes a walk and notices the coat of a pitbull.,dogs,pitbull,low,light,positive,22409,coats,workerid_0052,TRUE,TRUE,TRUE,pitbull,the pitbull is light,the pitbull is light.,1,coats,coats,coat,FALSE,FALSE,FALSE,_coat_,_pitbull_,_dogs_,0,0,coat,48,48,coat
free_class_elicitation,3,26,length_duration,Alicia is looking at an alley on Google Maps.,roads,alley,low,short,negative,7839,streets,workerid_0053,TRUE,TRUE,TRUE,alley,the alley is short,the alley is short.,1,streets,streets,streets,FALSE,FALSE,FALSE,_streets_,_alley_,_roads_,0,0,streets,6,6,streets
free_class_elicitation,7,65,speed,Kim is taking a walk with a elderly person.,people,elderly person,low,slow,negative,18569,walkers,workerid_0054,TRUE,TRUE,TRUE,elder,the elderly person is slow,the elderly person is slow.,1,walkers,walkers,walkers,FALSE,FALSE,FALSE,_walkers_,_elder_,_people_,0,0,walkers,14,14,walkers
free_class_elicitation,8,74,temperature,Michelle steps outside on a day in fall.,seasons,fall,medium,warm,positive,10745,days,workerid_0054,TRUE,TRUE,TRUE,fall,the fall is warm,the fall is warm.,1,days,days,day,FALSE,FALSE,FALSE,_day_,_fall_,_seasons_,0,0,day,146,146,day
free_class_elicitation,13,24,length_duration,Gary sees a friend driving a smartcar.,vehicles,smartcar,low,short,negative,10193,car models,workerid_0054,TRUE,TRUE,TRUE,smart,the smartcar is short,the smartcar is short.,2,car models,car models,cars,FALSE,FALSE,FALSE,_cars_,_smart_,_vehicles_,0,0,cars,92,92,cars
free_class_elicitation,21,9,hardness,Eric is at a vegetable market and picks up a mushroom.,vegetables,mushroom,low,soft,negative,13461,food items,workerid_0054,TRUE,TRUE,TRUE,mushroom,the mushroom is soft,the mushroom is soft.,2,food items,food items,food,FALSE,FALSE,FALSE,_food_,_mushroom_,_vegetables_,0,0,food,4,4,food
free_class_elicitation,1,16,height,Tom is looking at a strip mall.,buildings,strip mall,low,tall,positive,22436,malls,workerid_0055,TRUE,TRUE,TRUE,strip mall,the strip mall is tall,the strip mall is tall.,1,malls,malls,malls,FALSE,FALSE,FALSE,_malls_,_strip mall_,_buildings_,0,0,malls,34,34,malls
free_class_elicitation,4,41,price,Julia is at a decoration shop and looks at a statue made of plastic.,statues,plastic,low,expensive,positive,15030,decorations,workerid_0055,TRUE,TRUE,TRUE,plastic,the plastic is expensive,the plastic is expensive.,1,decorations,decorations,decor,FALSE,FALSE,FALSE,_decor_,_plastic_,_statues_,0,0,decor,38,38,decor
free_class_elicitation,14,62,speed_f,Alicia sees a truck on the highway.,vehicles,truck,low,fast,positive,5771,cars,workerid_0055,TRUE,TRUE,TRUE,truck,the truck is fast,the truck is fast.,1,cars,cars,cars,FALSE,FALSE,FALSE,_cars_,_truck_,_vehicles_,0,0,cars,5,5,cars
free_class_elicitation,15,32,loudness_n,Kathleen is spending her Saturday night at a restaurant.,venues,restaurant,medium,quiet,negative,9911,envrionments,workerid_0055,TRUE,TRUE,TRUE,restaurant,the restaurant is quiet,the restaurant is quiet.,1,environments,environments,environment,TRUE,FALSE,FALSE,_environment_,_restaurant_,_venues_,0,0,environment,1,1,venues
free_class_elicitation,16,74,temperature,Jasmine steps outside on a day in summer.,seasons,summer,high,warm,positive,10667,indoor areas,workerid_0055,TRUE,TRUE,TRUE,summer,the summer is warm,the summer is warm.,2,indoor areas,indoor areas,venue,FALSE,FALSE,FALSE,_venue_,_summer_,_seasons_,0,0,venue,1,1,seasons
free_class_elicitation,27,64,speed,Lucas is at a friend's house and sees their pet turtle come towards them.,pets,turtle,low,slow,negative,7328,animals,workerid_0055,TRUE,TRUE,TRUE,turtle,the turtle is slow,the turtle is slow.,1,animals,animals,animals,FALSE,FALSE,FALSE,_animals_,_turtle_,_pets_,0,0,animals,51,51,animals
free_class_elicitation,36,30,loudness_n,Angela meets a friend at a conference center.,venue,conference center,medium,noisy,positive,9564,locations,workerid_0055,TRUE,TRUE,TRUE,conference center,the conference center is noisy,the conference center is noisy.,1,locations,locations,locations,FALSE,FALSE,FALSE,_locations_,_conference center_,_venue_,0,0,locations,5,5,locations
free_class_elicitation,20,77,temperature_h,Melinda is at a restaurant and takes a taste of a chocolate fondue.,desserts,chocolate fondue,high,hot,positive,16935,foods,workerid_0056,TRUE,TRUE,TRUE,fondue,the chocolate fondue is hot,the chocolate fondue is hot.,1,foods,foods,food,FALSE,FALSE,FALSE,_food_,_fondue_,_desserts_,0,0,food,64,64,food
free_class_elicitation,22,37,loudness_n,Robert is on the sidewalk and hears an electric car drive by.,vehicles,electric car,low,quiet,negative,6527,cars,workerid_0056,TRUE,TRUE,TRUE,electric,the electric car is quiet,the electric car is quiet.,1,cars,cars,cars,FALSE,FALSE,FALSE,_cars_,_electric_,_vehicles_,0,0,cars,71,71,cars
free_class_elicitation,30,31,loudness_n,Lucas is at a friend's place and hears his pet parrot.,pets,parrot,high,loud,positive,6341,birds,workerid_0056,TRUE,TRUE,TRUE,parrot,the parrot is loud,the parrot is loud.,1,birds,birds,birdss,FALSE,FALSE,FALSE,_birdss_,_parrot_,_pets_,0,0,birdss,24,24,birdss
free_class_elicitation,1,24,length_duration,William sees a friend driving a smartcar.,vehicles,smartcar,low,long,positive,16614,cars,workerid_0057,TRUE,TRUE,TRUE,smart,the smartcar is long,the smartcar is long.,1,cars,cars,cars,FALSE,FALSE,FALSE,_cars_,_smart_,_vehicles_,0,0,cars,92,92,cars
free_class_elicitation,8,70,strength,Simon is painting and tries a new wall paint.,paints,wall paint,medium,strong,positive,30766,colors,workerid_0057,TRUE,TRUE,TRUE,wall,the wall paint is strong,the wall paint is strong.,1,colors,colors,colors,FALSE,FALSE,FALSE,_colors_,_wall_,_paints_,0,0,colors,29,29,colors
free_class_elicitation,21,37,loudness_n,Monica is on the sidewalk and hears an electric car drive by.,vehicles,electric car,low,loud,positive,16334,cars,workerid_0057,TRUE,TRUE,TRUE,electric,the electric car is loud,the electric car is loud.,1,cars,cars,cars,FALSE,FALSE,FALSE,_cars_,_electric_,_vehicles_,0,0,cars,71,71,cars
free_class_elicitation,27,74,temperature,Gary steps outside on a day in winter.,seasons,winter,low,cold,negative,11392,days,workerid_0057,TRUE,TRUE,TRUE,winter,the winter is cold,the winter is cold.,1,days,days,day,FALSE,FALSE,FALSE,_day_,_winter_,_seasons_,0,0,day,146,146,day
free_class_elicitation,34,74,temperature,Anthony steps outside on a day in fall.,seasons,fall,medium,cold,negative,12657,days,workerid_0057,TRUE,TRUE,TRUE,fall,the fall is cold,the fall is cold.,1,days,days,day,FALSE,FALSE,FALSE,_day_,_fall_,_seasons_,0,0,day,146,146,day
free_class_elicitation,3,37,loudness_n,William is on the sidewalk and hears an electric car drive by.,vehicles,electric car,low,quiet,negative,32382,cars,workerid_0058,TRUE,TRUE,TRUE,electric,the electric car is quiet,the electric car is quiet.,1,cars,cars,cars,FALSE,FALSE,FALSE,_cars_,_electric_,_vehicles_,0,0,cars,71,71,cars
free_class_elicitation,6,5,darkness,Stephanie is writing with a piece of chalk and notices the color of the script.,writing utensils,piece of chalk,high,dark,negative,13900,scripts,workerid_0058,TRUE,TRUE,TRUE,chalk,the piece of chalk is dark,the piece of chalk is dark.,1,scripts,scripts,script,FALSE,FALSE,FALSE,_script_,_chalk_,_writing utensils_,0,0,script,60,60,script
free_class_elicitation,23,74,temperature,Simon steps outside on a day in fall.,seasons,fall,medium,warm,positive,11371,days,workerid_0059,TRUE,TRUE,TRUE,fall,the fall is warm,the fall is warm.,1,days,days,day,FALSE,FALSE,FALSE,_day_,_fall_,_seasons_,0,0,day,146,146,day
free_class_elicitation,35,56,size,Kathleen sees her friend's new sedan.,vehicles,sedan,medium,small,negative,10659,cars,workerid_0059,TRUE,TRUE,TRUE,sedan,the sedan is small,the sedan is small.,1,cars,cars,cars,FALSE,FALSE,FALSE,_cars_,_sedan_,_vehicles_,0,0,cars,117,117,cars
free_class_elicitation,9,38,loudness,Gabriel is in a forest and hears a owl.,birds,owl,low,loud,positive,11912,animals,workerid_0060,TRUE,TRUE,TRUE,owl,the owl is loud,the owl is loud.,1,animals,animals,animals,FALSE,FALSE,FALSE,_animals_,_owl_,_birds_,0,0,animals,10,10,animals
free_class_elicitation,13,77,temperature_h,Laura is at a restaurant and takes a taste of a chocolate fondue.,desserts,chocolate fondue,high,cold,negative,6806,food,workerid_0060,TRUE,TRUE,TRUE,fondue,the chocolate fondue is cold,the chocolate fondue is cold.,1,food,food,food,FALSE,FALSE,FALSE,_food_,_fondue_,_desserts_,0,0,food,64,64,food
free_class_elicitation,15,76,temperature_h,Josh is spending his Saturday at an ice rink.,places,ice rink,low,cold,negative,18624,locations,workerid_0060,TRUE,TRUE,TRUE,ice rink,the ice rink is cold,the ice rink is cold.,1,locations,locations,locations,FALSE,FALSE,FALSE,_locations_,_ice rink_,_places_,0,0,locations,8,8,locations
free_class_elicitation,22,47,price,Kim is shopping for berries and looks at the price of boysenberries.,berries,boysenberries,high,cheap,negative,6616,fruit,workerid_0060,TRUE,TRUE,TRUE,boysenberries,the boysenberries is cheap,the boysenberries is cheap.,1,fruit,fruit,fruit,FALSE,FALSE,FALSE,_fruit_,_boysenberries_,_berries_,0,0,fruit,62,62,fruit
free_class_elicitation,27,5,darkness,Charles is writing with a pen and notices the color of the script.,writing utensils,pen,medium,dark,negative,25263,paper,workerid_0060,TRUE,TRUE,TRUE,pen,the pen is dark,the pen is dark.,1,paper,paper,paper,FALSE,FALSE,FALSE,_paper_,_pen_,_writing utensils_,0,0,paper,5,5,paper
free_class_elicitation,3,67,strength,Laura watches an adult lift up a box.,people,adult,high,weak,negative,48491,gents,workerid_0061,TRUE,TRUE,TRUE,adult,the adult is weak,the adult is weak.,1,gents,gents,men,FALSE,FALSE,FALSE,_men_,_adult_,_people_,0,0,men,1,1,people
free_class_elicitation,4,44,price,John is shopping for spices and looks at saffron.,spices,saffron,high,expensive,positive,123098,products,workerid_0061,TRUE,TRUE,TRUE,saffron,the saffron is expensive,the saffron is expensive.,1,products,products,products,FALSE,FALSE,FALSE,_products_,_saffron_,_spices_,0,0,products,5,5,products
free_class_elicitation,7,47,price,Robert is shopping for berries and looks at the price of raspberries.,berries,raspberries,medium,cheap,negative,12574,fruits,workerid_0061,TRUE,TRUE,TRUE,raspberries,the raspberries is cheap,the raspberries is cheap.,1,fruits,fruits,fruit,FALSE,FALSE,FALSE,_fruit_,_raspberries_,_berries_,0,0,fruit,62,62,fruit
free_class_elicitation,8,7,darkness,William takes a walk and notices the coat of a pitbull.,dogs,pitbull,low,light,positive,72466,coats,workerid_0061,TRUE,TRUE,TRUE,pitbull,the pitbull is light,the pitbull is light.,1,coats,coats,coat,FALSE,FALSE,FALSE,_coat_,_pitbull_,_dogs_,0,0,coat,48,48,coat
free_class_elicitation,22,74,temperature,Stephen steps outside on a day in winter.,seasons,winter,low,cold,negative,8941,days,workerid_0061,TRUE,TRUE,TRUE,winter,the winter is cold,the winter is cold.,1,days,days,day,FALSE,FALSE,FALSE,_day_,_winter_,_seasons_,0,0,day,146,146,day
free_class_elicitation,36,40,loudness,Melinda wants to play music and tries out an ukelele.,guitars,ukelele,low,loud,positive,30102,musical instruments,workerid_0061,TRUE,TRUE,TRUE,ukelele,the ukelele is loud,the ukelele is loud.,2,musical instruments,musical instruments,instruments,FALSE,FALSE,FALSE,_instruments_,_ukelele_,_guitars_,0,0,instruments,120,120,instruments
free_class_elicitation,2,40,loudness,Laura wants to play music and tries out an ukelele.,guitars,ukelele,low,quiet,negative,11666,instruments,workerid_0062,TRUE,TRUE,TRUE,ukelele,the ukelele is quiet,the ukelele is quiet.,1,instruments,instruments,instruments,FALSE,FALSE,FALSE,_instruments_,_ukelele_,_guitars_,0,0,instruments,120,120,instruments
free_class_elicitation,3,56,size,Jennifer sees her friend's new smartcar.,vehicles,smartcar,low,small,negative,7812,cars,workerid_0062,TRUE,TRUE,TRUE,smart,the smartcar is small,the smartcar is small.,1,cars,cars,cars,FALSE,FALSE,FALSE,_cars_,_smart_,_vehicles_,0,0,cars,117,117,cars
free_class_elicitation,4,24,length_duration,Julia sees a friend driving a smartcar.,vehicles,smartcar,low,short,negative,6964,cars,workerid_0062,TRUE,TRUE,TRUE,smart,the smartcar is short,the smartcar is short.,1,cars,cars,cars,FALSE,FALSE,FALSE,_cars_,_smart_,_vehicles_,0,0,cars,92,92,cars
free_class_elicitation,20,87,width,Kathleen is driving on a downtown street.,roads,downtown street,medium,wide,positive,7669,streets,workerid_0062,TRUE,TRUE,TRUE,downtown,the downtown street is wide,the downtown street is wide.,1,streets,streets,streets,FALSE,FALSE,FALSE,_streets_,_downtown_,_roads_,0,0,streets,91,91,streets
free_class_elicitation,21,45,price,Gary wants to buy a bracelet and looks at one made of metal.,bracelets,metal,medium,expensive,positive,9704,jewelry,workerid_0062,TRUE,TRUE,TRUE,metal,the metal is expensive,the metal is expensive.,1,jewelry,jewelry,jewelry,FALSE,FALSE,FALSE,_jewelry_,_metal_,_bracelets_,0,0,jewelry,19,19,jewelry
free_class_elicitation,23,30,loudness_n,Lucas meets a friend at a conference center.,venue,conference center,medium,noisy,positive,13053,rooms,workerid_0062,TRUE,TRUE,TRUE,conference center,the conference center is noisy,the conference center is noisy.,1,rooms,rooms,rooms,FALSE,FALSE,FALSE,_rooms_,_conference center_,_venue_,0,0,rooms,21,21,rooms
free_class_elicitation,24,81,weight,Robert is helping a friend move and picks up their chair.,furniture,chair,medium,heavy,positive,10182,objects,workerid_0062,TRUE,TRUE,TRUE,chair,the chair is heavy,the chair is heavy.,1,objects,objects,objects,FALSE,FALSE,FALSE,_objects_,_chair_,_furniture_,0,0,objects,12,12,objects
free_class_elicitation,32,76,temperature_h,Tanya is spending her Saturday at a sauna.,places,sauna,high,hot,positive,11332,rooms,workerid_0062,TRUE,TRUE,TRUE,sauna,the sauna is hot,the sauna is hot.,1,rooms,rooms,rooms,FALSE,FALSE,FALSE,_rooms_,_sauna_,_places_,0,0,rooms,7,7,rooms
free_class_elicitation,33,33,loudness_n,Monica is taking a walk in a park and hears the cry of a rooster.,birds,rooster,high,loud,positive,17705,noises,workerid_0062,TRUE,TRUE,TRUE,rooster,the rooster is loud,the rooster is loud.,1,noises,noises,noise,FALSE,FALSE,FALSE,_noise_,_rooster_,_birds_,0,0,noise,4,4,noise
free_class_elicitation,36,77,temperature_h,Kim is at a restaurant and takes a taste of a chocolate fondue.,desserts,chocolate fondue,high,hot,positive,12017,food,workerid_0062,TRUE,TRUE,TRUE,fondue,the chocolate fondue is hot,the chocolate fondue is hot.,1,food,food,food,FALSE,FALSE,FALSE,_food_,_fondue_,_desserts_,0,0,food,64,64,food
free_class_elicitation,6,70,strength,Natalia is painting and tries a new oil paint.,paints,oil paint,high,strong,positive,19135,colors,workerid_0063,TRUE,TRUE,TRUE,oil,the oil paint is strong,the oil paint is strong.,1,colors,colors,colors,FALSE,FALSE,FALSE,_colors_,_oil_,_paints_,0,0,colors,29,29,colors
free_class_elicitation,9,30,loudness_n,Jasmine meets a friend at a church.,venue,church,low,quiet,negative,10999,places,workerid_0063,TRUE,TRUE,TRUE,church,the church is quiet,the church is quiet.,1,places,places,places,FALSE,FALSE,FALSE,_places_,_church_,_venue_,0,0,places,44,44,places
free_class_elicitation,16,18,height,David is looking at a sunflower.,flowers,sunflower,high,short,negative,10950,plants,workerid_0063,TRUE,TRUE,TRUE,sunflower,the sunflower is short,the sunflower is short.,1,plants,plants,plants,FALSE,FALSE,FALSE,_plants_,_sunflower_,_flowers_,0,0,plants,9,9,plants
free_class_elicitation,23,70,strength,Melinda is painting and tries a new wall paint.,paints,wall paint,medium,strong,positive,8815,colors,workerid_0063,TRUE,TRUE,TRUE,wall,the wall paint is strong,the wall paint is strong.,1,colors,colors,colors,FALSE,FALSE,FALSE,_colors_,_wall_,_paints_,0,0,colors,29,29,colors
free_class_elicitation,30,39,loudness_n,Julia is at a lake and hears the sound of a sailboat.,boats,sailboat,medium,loud,positive,12144,vehicles,workerid_0063,TRUE,TRUE,TRUE,sailboat,the sailboat is loud,the sailboat is loud.,1,vehicles,vehicles,vehicles,FALSE,FALSE,FALSE,_vehicles_,_sailboat_,_boats_,0,0,vehicles,1,1,boats
free_class_elicitation,33,80,weight,Anthony is at an electronics store and picks up a printer.,electronic devices,printer,high,light,negative,13518,electronics,workerid_0063,TRUE,TRUE,TRUE,printer,the printer is light,the printer is light.,1,electronics,electronics,electronics,FALSE,FALSE,FALSE,_electronics_,_printer_,_electronic devices_,0,0,electronics,4,4,electronics
free_class_elicitation,34,72,temperature,Maya takes the first bite of her ice cream.,food,ice cream,low,warm,positive,10928,desserts,workerid_0063,TRUE,TRUE,TRUE,ice cream,the ice cream is warm,the ice cream is warm.,1,desserts,desserts,desserts,FALSE,FALSE,FALSE,_desserts_,_ice cream_,_food_,0,0,desserts,3,3,desserts
free_class_elicitation,14,90,width,Jennifer is attempting to move furniture through the back door of her house.,doorways,back door,low,wide,positive,13662,furniture,workerid_0064,TRUE,TRUE,TRUE,back,the back door is wide,the back door is wide.,1,furniture,furniture,furniture,FALSE,FALSE,FALSE,_furniture_,_back_,_doorways_,0,0,furniture,49,49,furniture
free_class_elicitation,15,47,price,Simon is shopping for berries and looks at the price of raspberries.,berries,raspberries,medium,expensive,positive,7649,fruits,workerid_0064,TRUE,TRUE,TRUE,raspberries,the raspberries is expensive,the raspberries is expensive.,1,fruits,fruits,fruit,FALSE,FALSE,FALSE,_fruit_,_raspberries_,_berries_,0,0,fruit,62,62,fruit
free_class_elicitation,22,66,speed_f,Tanya is at an airport and sees a glider in the air.,aircrafts,glider,low,slow,negative,11121,airplanes,workerid_0064,TRUE,TRUE,TRUE,glider,the glider is slow,the glider is slow.,1,airplanes,airplanes,airmaterials,FALSE,FALSE,FALSE,_airmaterials_,_glider_,_aircrafts_,0,0,airmaterials,9,9,airmaterials
free_class_elicitation,30,39,loudness_n,John is at a lake and hears the sound of a powerboat.,boats,powerboat,high,loud,positive,15498,sounds,workerid_0064,TRUE,TRUE,TRUE,powerboat,the powerboat is loud,the powerboat is loud.,1,sounds,sounds,sound,FALSE,FALSE,FALSE,_sound_,_powerboat_,_boats_,0,0,sound,12,12,sound
free_class_elicitation,31,75,temperature_h,Robert is in his kitchen and puts his hand in the pantry.,locations,pantry,medium,warm,positive,13011,rooms,workerid_0064,TRUE,TRUE,TRUE,pantry,the pantry is warm,the pantry is warm.,1,rooms,rooms,rooms,FALSE,FALSE,FALSE,_rooms_,_pantry_,_locations_,0,0,rooms,18,18,rooms
free_class_elicitation,2,64,speed,Jennifer is at a friend's house and sees their pet turtle come towards them.,pets,turtle,low,slow,negative,12714,animals,workerid_0065,TRUE,TRUE,TRUE,turtle,the turtle is slow,the turtle is slow.,1,animals,animals,animals,FALSE,FALSE,FALSE,_animals_,_turtle_,_pets_,0,0,animals,51,51,animals
free_class_elicitation,12,24,length_duration,Kim sees a friend driving a smartcar.,vehicles,smartcar,low,short,negative,6668,cars,workerid_0065,TRUE,TRUE,TRUE,smart,the smartcar is short,the smartcar is short.,1,cars,cars,cars,FALSE,FALSE,FALSE,_cars_,_smart_,_vehicles_,0,0,cars,92,92,cars
free_class_elicitation,36,89,width,Claire is walking on a boulevard.,roads,boulevard,high,narrow,negative,7235,streets,workerid_0065,TRUE,TRUE,TRUE,boulevard,the boulevard is narrow,the boulevard is narrow.,1,streets,streets,streets,FALSE,FALSE,FALSE,_streets_,_boulevard_,_roads_,0,0,streets,36,36,streets
free_class_elicitation,4,87,width,Kathleen is driving on a downtown street.,roads,downtown street,medium,wide,positive,8377,streets,workerid_0066,TRUE,TRUE,TRUE,downtown,the downtown street is wide,the downtown street is wide.,1,streets,streets,streets,FALSE,FALSE,FALSE,_streets_,_downtown_,_roads_,0,0,streets,91,91,streets
free_class_elicitation,21,26,length_duration,Natalia is looking at a highway on Google Maps.,roads,highway,high,long,positive,14276,routes,workerid_0066,TRUE,TRUE,TRUE,highway,the highway is long,the highway is long.,1,routes,routes,routes,FALSE,FALSE,FALSE,_routes_,_highway_,_roads_,0,0,routes,7,7,routes
free_class_elicitation,23,37,loudness_n,Laura is on the sidewalk and hears an electric car drive by.,vehicles,electric car,low,quiet,negative,11562,cars,workerid_0066,TRUE,TRUE,TRUE,electric,the electric car is quiet,the electric car is quiet.,1,cars,cars,cars,FALSE,FALSE,FALSE,_cars_,_electric_,_vehicles_,0,0,cars,71,71,cars
free_class_elicitation,24,66,speed_f,Stephanie is at an airport and sees a helicopter in the air.,aircrafts,helicopter,medium,fast,positive,10051,vehicles,workerid_0066,TRUE,TRUE,TRUE,helicopter,the helicopter is fast,the helicopter is fast.,1,vehicles,vehicles,vehicles,FALSE,FALSE,FALSE,_vehicles_,_helicopter_,_aircrafts_,0,0,vehicles,12,12,vehicles
free_class_elicitation,29,89,width,Julia is walking on a boulevard.,roads,boulevard,high,wide,positive,7869,streets,workerid_0066,TRUE,TRUE,TRUE,boulevard,the boulevard is wide,the boulevard is wide.,1,streets,streets,streets,FALSE,FALSE,FALSE,_streets_,_boulevard_,_roads_,0,0,streets,36,36,streets
free_class_elicitation,33,13,hardness,Jasmine is at a hardware store and picks up a piece of cotton.,materials,cotton,low,soft,negative,25572,objects in-store,workerid_0066,TRUE,TRUE,TRUE,cotton,the cotton is soft,the cotton is soft.,2,objects in-store,objects in-store,objects in-store,FALSE,FALSE,FALSE,_objects in-store_,_cotton_,_materials_,0,0,objects in-store,1,1,materials
free_class_elicitation,1,37,loudness_n,Michael is on the sidewalk and hears an electric car drive by.,vehicles,electric car,low,quiet,negative,27160,cars,workerid_0067,TRUE,TRUE,TRUE,electric,the electric car is quiet,the electric car is quiet.,1,cars,cars,cars,FALSE,FALSE,FALSE,_cars_,_electric_,_vehicles_,0,0,cars,71,71,cars
free_class_elicitation,3,30,loudness_n,Maya meets a friend at a party.,venue,party,high,noisy,positive,12752,places,workerid_0067,TRUE,TRUE,TRUE,party,the party is noisy,the party is noisy.,1,places,places,places,FALSE,FALSE,FALSE,_places_,_party_,_venue_,0,0,places,44,44,places
free_class_elicitation,15,77,temperature_h,Laura is at a restaurant and takes a taste of a chocolate fondue.,desserts,chocolate fondue,high,hot,positive,8663,foods,workerid_0067,TRUE,TRUE,TRUE,fondue,the chocolate fondue is hot,the chocolate fondue is hot.,1,foods,foods,food,FALSE,FALSE,FALSE,_food_,_fondue_,_desserts_,0,0,food,64,64,food
free_class_elicitation,16,26,length_duration,John is looking at a highway on Google Maps.,roads,highway,high,short,negative,12136,ways,workerid_0067,TRUE,TRUE,TRUE,highway,the highway is short,the highway is short.,1,ways,ways,ways,FALSE,FALSE,FALSE,_ways_,_highway_,_roads_,0,0,ways,1,1,roads
free_class_elicitation,17,83,weight,Alexander is at a craft shop and picks up a piece of wool.,materials,wool,high,heavy,positive,9232,wood,workerid_0067,TRUE,TRUE,TRUE,wool,the wool is heavy,the wool is heavy.,1,wood,wood,wood,FALSE,FALSE,FALSE,_wood_,_wool_,_materials_,0,0,wood,2,2,materials
free_class_elicitation,25,90,width,Kim is attempting to move furniture through the patio door of her house.,doorways,patio door,medium,wide,positive,8759,doors,workerid_0067,TRUE,TRUE,TRUE,patio,the patio door is wide,the patio door is wide.,1,doors,doors,doors,FALSE,FALSE,FALSE,_doors_,_patio_,_doorways_,0,0,doors,69,69,doors
free_class_elicitation,13,10,hardness,Stephanie is eating a marshmallow.,candies,marshmallow,low,soft,negative,30975,foods,workerid_0068,TRUE,TRUE,TRUE,marshmallow,the marshmallow is soft,the marshmallow is soft.,1,foods,foods,food,FALSE,FALSE,FALSE,_food_,_marshmallow_,_candies_,0,0,food,32,32,food
free_class_elicitation,23,83,weight,William is at a craft shop and picks up a piece of silk.,materials,silk,low,heavy,positive,22040,fabrics,workerid_0068,TRUE,TRUE,TRUE,silk,the silk is heavy,the silk is heavy.,1,fabrics,fabrics,fabric,FALSE,FALSE,FALSE,_fabric_,_silk_,_materials_,0,0,fabric,86,86,fabric
free_class_elicitation,29,90,width,Josh is attempting to move furniture through the patio door of his house.,doorways,patio door,medium,wide,positive,13072,pieces of furnature,workerid_0068,TRUE,TRUE,TRUE,patio,the patio door is wide,the patio door is wide.,3,pieces of furnature,pieces of furnature, furniture,FALSE,FALSE,FALSE,_ furniture_,_patio_,_doorways_,0,0, furniture,7,7, furniture
free_class_elicitation,30,66,speed_f,Daniel is at an airport and sees a helicopter in the air.,aircrafts,helicopter,medium,slow,negative,9088,flying crafts,workerid_0068,TRUE,TRUE,TRUE,helicopter,the helicopter is slow,the helicopter is slow.,2,flying crafts,flying crafts,airmaterialss,FALSE,FALSE,FALSE,_airmaterialss_,_helicopter_,_aircrafts_,0,0,airmaterialss,1,1,aircrafts
free_class_elicitation,2,29,loudness,Gabriel is listening to a rock concert.,concerts,rock concert,high,loud,positive,7091,music,workerid_0070,TRUE,TRUE,TRUE,rock concert,the rock concert is loud,the rock concert is loud.,1,music,music,music,FALSE,FALSE,FALSE,_music_,_rock concert_,_concerts_,0,0,music,15,15,music
free_class_elicitation,21,6,darkness,Stephen is creating a flower bouquet and picks out a daisy.,flowers,daisy,high,light,positive,5754,bouquets,workerid_0070,TRUE,TRUE,TRUE,daisy,the daisy is light,the daisy is light.,1,bouquets,bouquets,bouquet,FALSE,FALSE,FALSE,_bouquet_,_daisy_,_flowers_,0,0,bouquet,21,21,bouquet
free_class_elicitation,33,76,temperature_h,Eric is spending his Saturday at a sauna.,places,sauna,high,hot,positive,10879,rooms,workerid_0070,TRUE,TRUE,TRUE,sauna,the sauna is hot,the sauna is hot.,1,rooms,rooms,rooms,FALSE,FALSE,FALSE,_rooms_,_sauna_,_places_,0,0,rooms,7,7,rooms
free_class_elicitation,4,74,temperature,Cameron steps outside on a day in winter.,seasons,winter,low,warm,positive,51567,outside,workerid_0071,TRUE,TRUE,TRUE,winter,the winter is warm,the winter is warm.,1,outside,outside,outside,FALSE,FALSE,FALSE,_outside_,_winter_,_seasons_,0,0,outside,2,2,seasons
free_class_elicitation,16,4,darkness,David steps outside during the day.,times of day,day,high,light,positive,25532,outside,workerid_0071,TRUE,TRUE,TRUE,day,the day is light,the day is light.,1,outside,outside,outside,FALSE,FALSE,FALSE,_outside_,_day_,_times of day_,0,0,outside,4,4,outside
free_class_elicitation,17,88,width,Stephen is standing at the bank of a stream.,waterways,stream,medium,narrow,negative,21635,bank,workerid_0071,TRUE,TRUE,TRUE,stream,the stream is narrow,the stream is narrow.,1,bank,bank,bank,FALSE,FALSE,FALSE,_bank_,_stream_,_waterways_,0,0,bank,12,12,bank
free_class_elicitation,25,6,darkness,Sophie is creating a flower bouquet and picks out a daisy.,flowers,daisy,high,light,positive,26261,bouquet,workerid_0071,TRUE,TRUE,TRUE,daisy,the daisy is light,the daisy is light.,1,bouquet,bouquet,bouquet,FALSE,FALSE,FALSE,_bouquet_,_daisy_,_flowers_,0,0,bouquet,21,21,bouquet
free_class_elicitation,10,64,speed,Lee is at a friend's house and sees their pet rabbit come towards them.,pets,rabbit,high,slow,negative,26863,animals,workerid_0072,TRUE,TRUE,TRUE,rabbit,the rabbit is slow,the rabbit is slow.,1,animals,animals,animals,FALSE,FALSE,FALSE,_animals_,_rabbit_,_pets_,0,0,animals,51,51,animals
free_class_elicitation,13,56,size,William sees his friend's new smartcar.,vehicles,smartcar,low,small,negative,5904,cars,workerid_0072,TRUE,TRUE,TRUE,smart,the smartcar is small,the smartcar is small.,1,cars,cars,cars,FALSE,FALSE,FALSE,_cars_,_smart_,_vehicles_,0,0,cars,117,117,cars
free_class_elicitation,16,33,loudness_n,Kim is taking a walk in a park and hears the cry of a crow.,birds,crow,medium,quiet,negative,15680,sounds,workerid_0072,TRUE,TRUE,TRUE,crow,the crow is quiet,the crow is quiet.,1,sounds,sounds,sound,FALSE,FALSE,FALSE,_sound_,_crow_,_birds_,0,0,sound,13,13,sound
free_class_elicitation,22,30,loudness_n,Sophie meets a friend at a church.,venue,church,low,quiet,negative,18936,places,workerid_0072,TRUE,TRUE,TRUE,church,the church is quiet,the church is quiet.,1,places,places,places,FALSE,FALSE,FALSE,_places_,_church_,_venue_,0,0,places,44,44,places
free_class_elicitation,29,24,length_duration,Michelle sees a friend driving a smartcar.,vehicles,smartcar,low,short,negative,5167,cars,workerid_0072,TRUE,TRUE,TRUE,smart,the smartcar is short,the smartcar is short.,1,cars,cars,cars,FALSE,FALSE,FALSE,_cars_,_smart_,_vehicles_,0,0,cars,92,92,cars
free_class_elicitation,31,37,loudness_n,Jasmine is on the sidewalk and hears an electric car drive by.,vehicles,electric car,low,loud,positive,4671,car,workerid_0072,TRUE,TRUE,TRUE,electric,the electric car is loud,the electric car is loud.,1,car,car,car,FALSE,FALSE,FALSE,_cars_,_electric_,_vehicles_,0,0,cars,71,71,cars
free_class_elicitation,3,66,speed_f,Daniel is at an airport and sees a glider in the air.,aircrafts,glider,low,slow,negative,9644,airplanes,workerid_0073,TRUE,TRUE,TRUE,glider,the glider is slow,the glider is slow.,1,airplanes,airplanes,airmaterials,FALSE,FALSE,FALSE,_airmaterials_,_glider_,_aircrafts_,0,0,airmaterials,9,9,airmaterials
free_class_elicitation,13,83,weight,Melinda is at a craft shop and picks up a piece of cotton.,materials,cotton,medium,light,negative,10589,yarn,workerid_0073,TRUE,TRUE,TRUE,cotton,the cotton is light,the cotton is light.,1,yarn,yarn,yarn,FALSE,FALSE,FALSE,_yarn_,_cotton_,_materials_,0,0,yarn,2,2,materials
free_class_elicitation,19,90,width,Jennifer is attempting to move furniture through the patio door of her house.,doorways,patio door,medium,narrow,negative,14391,doors,workerid_0073,TRUE,TRUE,TRUE,patio,the patio door is narrow,the patio door is narrow.,1,doors,doors,doors,FALSE,FALSE,FALSE,_doors_,_patio_,_doorways_,0,0,doors,69,69,doors
free_class_elicitation,34,75,temperature_h,Angela is in her kitchen and puts her hand in the pantry.,locations,pantry,medium,warm,positive,12361,areas around,workerid_0073,TRUE,TRUE,TRUE,pantry,the pantry is warm,the pantry is warm.,2,areas around,areas around,areas,FALSE,FALSE,FALSE,_areas_,_pantry_,_locations_,0,0,areas,6,6,areas
free_class_elicitation,3,67,strength,Michelle watches a child lift up a box.,people,child,low,weak,negative,9932,boxes,workerid_0074,TRUE,TRUE,TRUE,child,the child is weak,the child is weak.,1,boxes,boxes,box,FALSE,FALSE,FALSE,_box_,_child_,_people_,0,0,box,24,24,box
free_class_elicitation,6,54,size,Angela is at a farmer's market and picks up a kumquat.,fruit,kumquat,low,small,negative,5875,vegetables,workerid_0074,TRUE,TRUE,TRUE,kumquat,the kumquat is small,the kumquat is small.,1,vegetables,vegetables,vegetables,FALSE,FALSE,FALSE,_vegetables_,_kumquat_,_fruit_,0,0,vegetables,3,3,vegetables
free_class_elicitation,11,30,loudness_n,Charles meets a friend at a conference center.,venue,conference center,medium,noisy,positive,7488,places,workerid_0074,TRUE,TRUE,TRUE,conference center,the conference center is noisy,the conference center is noisy.,1,places,places,places,FALSE,FALSE,FALSE,_places_,_conference center_,_venue_,0,0,places,44,44,places
free_class_elicitation,14,47,price,Claire is shopping for berries and looks at the price of strawberries.,berries,strawberries,low,expensive,positive,4663,fruit,workerid_0074,TRUE,TRUE,TRUE,strawberries,the strawberries is expensive,the strawberries is expensive.,1,fruit,fruit,fruit,FALSE,FALSE,FALSE,_fruit_,_strawberries_,_berries_,0,0,fruit,62,62,fruit
free_class_elicitation,26,16,height,Alicia is looking at a strip mall.,buildings,strip mall,low,tall,positive,6867,malls,workerid_0074,TRUE,TRUE,TRUE,strip mall,the strip mall is tall,the strip mall is tall.,1,malls,malls,malls,FALSE,FALSE,FALSE,_malls_,_strip mall_,_buildings_,0,0,malls,34,34,malls
free_class_elicitation,30,37,loudness_n,Laura is on the sidewalk and hears an electric car drive by.,vehicles,electric car,low,loud,positive,3960,cars,workerid_0074,TRUE,TRUE,TRUE,electric,the electric car is loud,the electric car is loud.,1,cars,cars,cars,FALSE,FALSE,FALSE,_cars_,_electric_,_vehicles_,0,0,cars,71,71,cars
free_class_elicitation,35,14,hardness,Monica is in her bedroom and sits on a bedboard.,furniture,bedboard,high,soft,negative,4916,beds,workerid_0074,TRUE,TRUE,TRUE,bedboard,the bedboard is soft,the bedboard is soft.,1,beds,beds,beds,FALSE,FALSE,FALSE,_beds_,_bedboard_,_furniture_,0,0,beds,22,22,beds
free_class_elicitation,36,24,length_duration,Lee sees a friend driving a limousine.,vehicles,limousine,high,short,negative,3586,cars,workerid_0074,TRUE,TRUE,TRUE,limo,the limousine is short,the limousine is short.,1,cars,cars,cars,FALSE,FALSE,FALSE,_cars_,_limo_,_vehicles_,0,0,cars,92,92,cars
free_class_elicitation,7,35,loudness,Lee is in a room with an adult.,people,adult,low,quiet,negative,4541,rooms,workerid_0075,TRUE,TRUE,TRUE,adult,the adult is quiet,the adult is quiet.,1,rooms,rooms,rooms,FALSE,FALSE,FALSE,_rooms_,_adult_,_people_,0,0,rooms,3,3,rooms
free_class_elicitation,9,5,darkness,Kim is writing with a pen and notices the color of the script.,writing utensils,pen,medium,dark,negative,3672,scripts,workerid_0075,TRUE,TRUE,TRUE,pen,the pen is dark,the pen is dark.,1,scripts,scripts,script,FALSE,FALSE,FALSE,_script_,_pen_,_writing utensils_,0,0,script,60,60,script
free_class_elicitation,10,13,hardness,Natalia is at a hardware store and picks up a piece of plastic.,materials,plastic,medium,hard,positive,3899,things,workerid_0075,TRUE,TRUE,TRUE,plastic,the plastic is hard,the plastic is hard.,1,things,things,things,FALSE,FALSE,FALSE,_things_,_plastic_,_materials_,0,0,things,3,3,things
free_class_elicitation,21,47,price,Cameron is shopping for berries and looks at the price of strawberries.,berries,strawberries,low,expensive,positive,3059,fruits,workerid_0075,TRUE,TRUE,TRUE,strawberries,the strawberries is expensive,the strawberries is expensive.,1,fruits,fruits,fruit,FALSE,FALSE,FALSE,_fruit_,_strawberries_,_berries_,0,0,fruit,62,62,fruit
free_class_elicitation,24,3,darkness,Jasmine is at a bakery and looks at the color of a cheesecake.,cakes,cheesecake,high,light,positive,6059,desserts,workerid_0075,TRUE,TRUE,TRUE,cheesecake,the cheesecake is light,the cheesecake is light.,1,desserts,desserts,desserts,FALSE,FALSE,FALSE,_desserts_,_cheesecake_,_cakes_,0,0,desserts,8,8,desserts
free_class_elicitation,27,76,temperature_h,Anthony is spending his Saturday at an ice rink.,places,ice rink,low,hot,positive,5902,weather,workerid_0075,TRUE,TRUE,TRUE,ice rink,the ice rink is hot,the ice rink is hot.,1,weather,weather,weather,FALSE,FALSE,FALSE,_weather_,_ice rink_,_places_,0,0,weather,5,5,weather
free_class_elicitation,29,70,strength,Greg is painting and tries a new oil paint.,paints,oil paint,high,weak,negative,4054,paintings,workerid_0075,TRUE,TRUE,TRUE,oil,the oil paint is weak,the oil paint is weak.,1,paintings,paintings,paintings,FALSE,FALSE,FALSE,_paintings_,_oil_,_paints_,0,0,paintings,3,3,paintings
free_class_elicitation,10,24,length_duration,Cameron sees a friend driving a pick-up truck.,vehicles,pick-up truck,medium,short,negative,7943,trucks,workerid_0076,TRUE,TRUE,TRUE,pick-up,the pick-up truck is short,the pick-up truck is short.,1,trucks,trucks,truck,FALSE,FALSE,FALSE,_truck_,_pick-up_,_vehicles_,0,0,truck,45,45,truck
free_class_elicitation,15,7,darkness,Sophie takes a walk and notices the coat of a poodle.,dogs,poodle,high,dark,negative,15624,coats,workerid_0076,TRUE,TRUE,TRUE,poodle,the poodle is dark,the poodle is dark.,1,coats,coats,coat,FALSE,FALSE,FALSE,_coat_,_poodle_,_dogs_,0,0,coat,48,48,coat
free_class_elicitation,21,33,loudness_n,Michael is taking a walk in a park and hears the cry of a rooster.,birds,rooster,high,loud,positive,13888,sounds in the park,workerid_0077,TRUE,TRUE,TRUE,rooster,the rooster is loud,the rooster is loud.,4,sounds in the park,sounds in the park,sound,FALSE,FALSE,FALSE,_sound_,_rooster_,_birds_,0,0,sound,13,13,sound
free_class_elicitation,24,83,weight,Julia is at a craft shop and picks up a piece of cotton.,materials,cotton,medium,light,negative,18662,pieces of fabric,workerid_0077,TRUE,TRUE,TRUE,cotton,the cotton is light,the cotton is light.,3,pieces of fabric,pieces of fabric, fabric,FALSE,FALSE,FALSE,_ fabric_,_cotton_,_materials_,0,0, fabric,3,3, fabric
free_class_elicitation,31,90,width,Robert is attempting to move furniture through the patio door of his house.,doorways,patio door,medium,wide,positive,13669,furniture,workerid_0077,TRUE,TRUE,TRUE,patio,the patio door is wide,the patio door is wide.,1,furniture,furniture,furniture,FALSE,FALSE,FALSE,_furniture_,_patio_,_doorways_,0,0,furniture,49,49,furniture
free_class_elicitation,33,38,loudness,Stephanie is in a forest and hears a owl.,birds,owl,low,quiet,negative,20709,sounds in the forest,workerid_0077,TRUE,TRUE,TRUE,owl,the owl is quiet,the owl is quiet.,4,sounds in the forest,sounds in the forest,sound,FALSE,FALSE,FALSE,_sound_,_owl_,_birds_,0,0,sound,12,12,sound
free_class_elicitation,2,56,size,Charles sees his friend's new smartcar.,vehicles,smartcar,low,big,positive,10102,cars,workerid_0078,TRUE,TRUE,TRUE,smart,the smartcar is big,the smartcar is big.,1,cars,cars,cars,FALSE,FALSE,FALSE,_cars_,_smart_,_vehicles_,0,0,cars,117,117,cars
free_class_elicitation,9,65,speed,Kim is taking a walk with an adult.,people,adult,high,quick,positive,37824,walkers,workerid_0079,TRUE,TRUE,TRUE,adult,the adult is quick,the adult is quick.,1,walkers,walkers,walkers,FALSE,FALSE,FALSE,_walkers_,_adult_,_people_,0,0,walkers,14,14,walkers
free_class_elicitation,10,56,size,Melinda sees her friend's new sedan.,vehicles,sedan,medium,big,positive,21377,cars,workerid_0079,TRUE,TRUE,TRUE,sedan,the sedan is big,the sedan is big.,1,cars,cars,cars,FALSE,FALSE,FALSE,_cars_,_sedan_,_vehicles_,0,0,cars,117,117,cars
free_class_elicitation,30,40,loudness,Kim wants to play music and tries out an ukelele.,guitars,ukelele,low,quiet,negative,18676,string instuments,workerid_0079,TRUE,TRUE,TRUE,ukelele,the ukelele is quiet,the ukelele is quiet.,2,string instuments,string instuments,string instruments,FALSE,FALSE,FALSE,_string instruments_,_ukelele_,_guitars_,0,0,string instruments,3,3,string instruments
free_class_elicitation,12,73,temperature_h,Tom takes the first sip from a coffee.,drinks,coffee,high,hot,positive,12796,room temperature liquids.,workerid_0080,TRUE,TRUE,TRUE,coffee,the coffee is hot,the coffee is hot.,3,room temperature liquids.,room temperature liquids.,liquid.,FALSE,FALSE,FALSE,_liquid._,_coffee_,_drinks_,0,0,liquid.,1,1,drinks
free_class_elicitation,16,31,loudness_n,Angela is at a friend's place and hears her pet cat.,pets,cat,medium,loud,positive,12591,sounds in the place.,workerid_0080,TRUE,TRUE,TRUE,cat,the cat is loud,the cat is loud.,4,sounds in the place.,sounds in the place.,sound in the place.,FALSE,FALSE,FALSE,_sound in the place._,_cat_,_pets_,0,0,sound in the place.,1,1,pets
free_class_elicitation,35,66,speed_f,Alexander is at an airport and sees a glider in the air.,aircrafts,glider,low,fast,positive,15205,things in the airport.,workerid_0080,TRUE,TRUE,TRUE,glider,the glider is fast,the glider is fast.,4,things in the airport.,things in the airport.,airmaterialsport.,FALSE,FALSE,FALSE,_airmaterialsport._,_glider_,_aircrafts_,0,0,airmaterialsport.,1,1,aircrafts
free_class_elicitation,13,47,price,Charles is shopping for berries and looks at the price of boysenberries.,berries,boysenberries,high,expensive,positive,6072,fruit,workerid_0081,TRUE,TRUE,TRUE,boysenberries,the boysenberries is expensive,the boysenberries is expensive.,1,fruit,fruit,fruit,FALSE,FALSE,FALSE,_fruit_,_boysenberries_,_berries_,0,0,fruit,62,62,fruit
free_class_elicitation,16,87,width,Kim is driving on a downtown street.,roads,downtown street,medium,narrow,negative,6418,streets,workerid_0081,TRUE,TRUE,TRUE,downtown,the downtown street is narrow,the downtown street is narrow.,1,streets,streets,streets,FALSE,FALSE,FALSE,_streets_,_downtown_,_roads_,0,0,streets,91,91,streets
free_class_elicitation,26,24,length_duration,Cameron sees a friend driving a pick-up truck.,vehicles,pick-up truck,medium,short,negative,5128,trucks,workerid_0081,TRUE,TRUE,TRUE,pick-up,the pick-up truck is short,the pick-up truck is short.,1,trucks,trucks,truck,FALSE,FALSE,FALSE,_truck_,_pick-up_,_vehicles_,0,0,truck,45,45,truck
free_class_elicitation,29,16,height,Stephen is looking at a strip mall.,buildings,strip mall,low,tall,positive,5907,malls,workerid_0081,TRUE,TRUE,TRUE,strip mall,the strip mall is tall,the strip mall is tall.,1,malls,malls,malls,FALSE,FALSE,FALSE,_malls_,_strip mall_,_buildings_,0,0,malls,34,34,malls
free_class_elicitation,35,55,size,Alexander is at an aquarium and sees a herring.,fish,herring,low,big,positive,4683,birds,workerid_0081,TRUE,TRUE,TRUE,herring,the herring is big,the herring is big.,1,birds,birds,birdss,FALSE,FALSE,FALSE,_birdss_,_herring_,_fish_,0,0,birdss,6,6,birdss
free_class_elicitation,9,38,loudness,Simon is in a forest and hears a mockingbird .,birds,mockingbird,high,quiet,negative,13096,places,workerid_0082,TRUE,TRUE,TRUE,mockingbird,the mockingbird is quiet,the mockingbird is quiet.,1,places,places,places,FALSE,FALSE,FALSE,_places_,_mockingbird_,_birds_,0,0,places,12,12,places
free_class_elicitation,18,69,strength,William is watching a golfer lift weights.,athletes,golfer,low,strong,positive,6520,weights,workerid_0083,TRUE,TRUE,TRUE,golfer,the golfer is strong,the golfer is strong.,1,weights,weights,weight,FALSE,FALSE,FALSE,_weight_,_golfer_,_athletes_,0,0,weight,20,20,weight
free_class_elicitation,2,83,weight,Michelle is at a craft shop and picks up a piece of wool.,materials,wool,high,light,negative,20131,fabrics,workerid_0084,TRUE,TRUE,TRUE,wool,the wool is light,the wool is light.,1,fabrics,fabrics,fabric,FALSE,FALSE,FALSE,_fabric_,_wool_,_materials_,0,0,fabric,86,86,fabric
free_class_elicitation,6,37,loudness_n,Alexander is on the sidewalk and hears an electric car drive by.,vehicles,electric car,low,loud,positive,13335,cars,workerid_0084,TRUE,TRUE,TRUE,electric,the electric car is loud,the electric car is loud.,1,cars,cars,cars,FALSE,FALSE,FALSE,_cars_,_electric_,_vehicles_,0,0,cars,71,71,cars
free_class_elicitation,7,42,price,John is looking to rent a new place and checks out a villa.,rentals,villa,high,expensive,positive,27186,apartments,workerid_0084,TRUE,TRUE,TRUE,villa,the villa is expensive,the villa is expensive.,1,apartments,apartments,apartments,FALSE,FALSE,FALSE,_apartments_,_villa_,_rentals_,0,0,apartments,1,1,rentals
free_class_elicitation,13,81,weight,William is helping a friend move and picks up their trash can.,furniture,trash can,low,heavy,positive,12386,items,workerid_0084,TRUE,TRUE,TRUE,trash can,the trash can is heavy,the trash can is heavy.,1,items,items,items,FALSE,FALSE,FALSE,_items_,_trash can_,_furniture_,0,0,items,3,3,items
free_class_elicitation,30,74,temperature,Julia steps outside on a day in summer.,seasons,summer,high,warm,positive,10501,days,workerid_0084,TRUE,TRUE,TRUE,summer,the summer is warm,the summer is warm.,1,days,days,day,FALSE,FALSE,FALSE,_day_,_summer_,_seasons_,0,0,day,146,146,day
free_class_elicitation,32,77,temperature_h,Michael is at a restaurant and takes a taste of a muffin.,desserts,muffin,medium,hot,positive,42229,food items,workerid_0084,TRUE,TRUE,TRUE,muffin,the muffin is hot,the muffin is hot.,2,food items,food items,food,FALSE,FALSE,FALSE,_food_,_muffin_,_desserts_,0,0,food,64,64,food
free_class_elicitation,20,74,temperature,Alicia steps outside on a day in fall.,seasons,fall,medium,warm,positive,8325,days,workerid_0086,TRUE,TRUE,TRUE,fall,the fall is warm,the fall is warm.,1,days,days,day,FALSE,FALSE,FALSE,_day_,_fall_,_seasons_,0,0,day,146,146,day
free_class_elicitation,22,56,size,Kim sees her friend's new sedan.,vehicles,sedan,medium,small,negative,6570,cars,workerid_0086,TRUE,TRUE,TRUE,sedan,the sedan is small,the sedan is small.,1,cars,cars,cars,FALSE,FALSE,FALSE,_cars_,_sedan_,_vehicles_,0,0,cars,117,117,cars
free_class_elicitation,16,45,price,Jennifer wants to buy a bracelet and looks at one made of plastic.,bracelets,plastic,low,cheap,negative,16002,jewelry,workerid_0087,TRUE,TRUE,TRUE,plastic,the plastic is cheap,the plastic is cheap.,1,jewelry,jewelry,jewelry,FALSE,FALSE,FALSE,_jewelry_,_plastic_,_bracelets_,0,0,jewelry,19,19,jewelry
free_class_elicitation,19,75,temperature_h,Alicia is in her kitchen and puts her hand in the oven.,locations,oven,high,warm,positive,20800,rooms in the house,workerid_0087,TRUE,TRUE,TRUE,oven,the oven is warm,the oven is warm.,4,rooms in the house,rooms in the house,rooms,FALSE,FALSE,FALSE,_rooms_,_oven_,_locations_,0,0,rooms,18,18,rooms
free_class_elicitation,22,90,width,Michael is attempting to move furniture through the back door of his house.,doorways,back door,low,narrow,negative,9495,doors,workerid_0087,TRUE,TRUE,TRUE,back,the back door is narrow,the back door is narrow.,1,doors,doors,doors,FALSE,FALSE,FALSE,_doors_,_back_,_doorways_,0,0,doors,69,69,doors
free_class_elicitation,32,69,strength,Monica is watching a cyclist lift weights.,athletes,cyclist,medium,weak,negative,12291,people,workerid_0087,TRUE,TRUE,TRUE,cyclist,the cyclist is weak,the cyclist is weak.,1,people,people,people,FALSE,FALSE,FALSE,_people_,_cyclist_,_athletes_,0,0,people,74,74,people
free_class_elicitation,35,74,temperature,Gary steps outside on a day in fall.,seasons,fall,medium,cold,negative,15383,past days,workerid_0087,TRUE,TRUE,TRUE,fall,the fall is cold,the fall is cold.,2,past days,past days,past day,FALSE,FALSE,FALSE,_past day_,_fall_,_seasons_,0,0,past day,1,1,seasons
free_class_elicitation,1,31,loudness_n,Mika is at a friend's place and hears her pet parrot.,pets,parrot,high,quiet,negative,14881,birds,workerid_0088,TRUE,TRUE,TRUE,parrot,the parrot is quiet,the parrot is quiet.,1,birds,birds,birdss,FALSE,FALSE,FALSE,_birdss_,_parrot_,_pets_,0,0,birdss,24,24,birdss
free_class_elicitation,2,61,speed,Jasmine wants to cook dinner and considers using a frying pan.,cookware,frying pan,medium,slow,negative,35503,stoves,workerid_0088,TRUE,TRUE,TRUE,frying pan,the frying pan is slow,the frying pan is slow.,1,stoves,stoves,stoves,FALSE,FALSE,FALSE,_stoves_,_frying pan_,_cookware_,0,0,stoves,3,3,stoves
free_class_elicitation,5,41,price,Gary is at a decoration shop and looks at a statue made of bronze.,statues,bronze,medium,cheap,negative,14226,decorations,workerid_0088,TRUE,TRUE,TRUE,bronze,the bronze is cheap,the bronze is cheap.,1,decorations,decorations,decor,FALSE,FALSE,FALSE,_decor_,_bronze_,_statues_,0,0,decor,38,38,decor
free_class_elicitation,6,16,height,Lucas is looking at a strip mall.,buildings,strip mall,low,tall,positive,9267,malls,workerid_0088,TRUE,TRUE,TRUE,strip mall,the strip mall is tall,the strip mall is tall.,1,malls,malls,malls,FALSE,FALSE,FALSE,_malls_,_strip mall_,_buildings_,0,0,malls,34,34,malls
free_class_elicitation,21,69,strength,Anthony is watching a wrestler lift weights.,athletes,wrestler,high,strong,positive,12575,people,workerid_0088,TRUE,TRUE,TRUE,wrestler,the wrestler is strong,the wrestler is strong.,1,people,people,people,FALSE,FALSE,FALSE,_people_,_wrestler_,_athletes_,0,0,people,74,74,people
