trial_type,trial_num,stim_id,degree,context_sentence,superordinate,np,np_expectations,adj,adj_polarity,rt,response,workerid
free_class_elicitation,1,49,price,Daniel is at a liquor store and wants to buy a six-pack of beer.,alcoholic drinks,six-pack of beer,low,cheap,negative,8769,beer,workerid_0001
free_class_elicitation,2,64,speed,Greg is at a friend's house and sees their pet turtle come towards them.,pets,turtle,low,quick,positive,9978,turtles,workerid_0001
free_class_elicitation,3,42,price,Natalia is looking to rent a new place and checks out a house.,rentals,house,medium,expensive,positive,7462,houses,workerid_0001
free_class_elicitation,4,54,size,Julia is at a farmer's market and picks up a watermelon.,fruit,watermelon,high,small,negative,6193,watermelons,workerid_0001
free_class_elicitation,5,21,length_duration,Kim is at a pet store and notices the length of a chihuahua.,dogs,chihuahua,low,short,negative,13095,chihuahuas,workerid_0001
free_class_elicitation,6,83,weight,Lucas is at a craft shop and picks up a piece of wool.,materials,wool,high,light,negative,19334,fabric,workerid_0001
free_class_elicitation,7,55,size,William is at an aquarium and sees a tuna.,fish,tuna,medium,big,positive,7046,tuna,workerid_0001
free_class_elicitation,8,69,strength,Monica is watching a cyclist lift weights.,athletes,cyclist,medium,strong,positive,18822,cyclists,workerid_0001
free_class_elicitation,9,72,temperature,Anthony takes the first bite of his salad.,food,salad,medium,cold,negative,8092,food,workerid_0001
free_class_elicitation,10,56,size,Maya sees her friend's new truck.,vehicles,truck,high,big,positive,7059,trucks,workerid_0001
free_class_elicitation,11,60,speed,Jasmine is at the zoo and watches a sloth move.,animals,sloth,low,fast,positive,4635,sloths,workerid_0001
free_class_elicitation,12,27,length_duration,Veronica looks up information about an upcoming relay race.,races,relay race,medium,long,positive,5925,races,workerid_0001
free_class_elicitation,13,13,hardness,John is at a hardware store and picks up a piece of wood.,materials,wood,high,soft,negative,9452,fabric,workerid_0001
free_class_elicitation,14,84,weight,Charles learns about the weight of a friend's new motorcycle.,vehicles,motorcycle,medium,light,negative,12795,motorcycles ,workerid_0001
free_class_elicitation,15,23,length_duration,Kathleen thinks about reading her favorite poem.,readings,poem,low,short,negative,8559,poems,workerid_0001
free_class_elicitation,16,76,temperature_h,Michelle is spending her Saturday at an ice rink.,places,ice rink,low,cold,negative,9068,rinks,workerid_0001
free_class_elicitation,17,85,weight,Cameron is at a grocery store and picks up a watermelon.,fruit,watermelon,high,heavy,positive,7546,watermelons ,workerid_0001
free_class_elicitation,18,22,length_duration,Lee is at a friend's house and notices the size of his pet mouse.,pets,mouse,low,short,negative,3866,mice,workerid_0001
free_class_elicitation,19,90,width,Eric is attempting to move furniture through the patio door of his house.,doorways,patio door,medium,wide,positive,6087,doors,workerid_0001
free_class_elicitation,20,26,length_duration,Melinda is looking at a street on Google Maps.,roads,street,medium,long,positive,7277,streets,workerid_0001
free_class_elicitation,21,2,darkness,Tom bought a can of white paint and is testing it for the first time.,paint,white paint,high,dark,negative,4999,paint,workerid_0001
free_class_elicitation,22,78,weight,Mika is at the zoo and watches a monkey being lifted.,animals,monkey,medium,light,negative,10151,monkeys,workerid_0001
free_class_elicitation,23,63,speed_f,Gary is travelling on his friend's new rowboat.,boats,rowboat,low,fast,positive,14040,rowboats,workerid_0001
free_class_elicitation,24,12,hardness,David picks up a melon.,fruit,melon,high,hard,positive,4251,melons,workerid_0001
free_class_elicitation,25,62,speed_f,Claire sees a truck on the highway.,vehicles,truck,low,fast,positive,6263,trucks,workerid_0001
free_class_elicitation,26,33,loudness_n,Sophie is taking a walk in a park and hears the cry of a rooster.,birds,rooster,high,loud,positive,5436,roosters,workerid_0001
free_class_elicitation,27,59,speed,Michael is in the park and sees a walker.,people,walker,low,fast,positive,13933,walkers,workerid_0001
free_class_elicitation,28,8,darkness,Stephen is at a zoo and notices the fur color of a panther.,animals,panther,low,light,positive,5382,panthers,workerid_0001
free_class_elicitation,29,43,price,Gabriel is shopping for shoes and looks at a pair of boots.,shoes,boots,high,cheap,negative,4338,boots,workerid_0001
free_class_elicitation,30,10,hardness,Laura is eating a jolly rancher.,candies,jolly rancher,high,hard,positive,5393,candy,workerid_0001
free_class_elicitation,31,67,strength,Simon watches a child lift up a box.,people,child,low,weak,negative,9780,children,workerid_0001
free_class_elicitation,32,53,size,Kim is looking in an insect terrarium and sees a moth.,insects,moth,medium,small,negative,4467,moths,workerid_0001
free_class_elicitation,33,81,weight,Angela is helping a friend move and picks up their couch.,furniture,couch,high,heavy,positive,8215,couches ,workerid_0001
free_class_elicitation,34,65,speed,Alicia is taking a walk with a child.,people,child,medium,slow,negative,6381,children,workerid_0001
free_class_elicitation,35,75,temperature_h,Josh is in his kitchen and puts his hand in the pantry.,locations,pantry,medium,cold,negative,12832,pantry's ,workerid_0001
free_class_elicitation,36,80,weight,Jennifer is at an electronics store and picks up a printer.,electronic devices,printer,high,light,negative,5031,printers,workerid_0001
free_class_elicitation,1,13,hardness,Robert is at a hardware store and picks up a piece of plastic.,materials,plastic,medium,hard,positive,12559,materials,workerid_0002
free_class_elicitation,2,2,darkness,Claire bought a can of blue paint and is testing it for the first time.,paint,blue paint,medium,dark,negative,16646,blues,workerid_0002
free_class_elicitation,3,29,loudness,Kim is listening to a rap concert.,concerts,rap concert,medium,quiet,negative,7604,concerts,workerid_0002
free_class_elicitation,4,57,size,Cameron is shopping at an appliances store and looks at a toaster. ,appliances,toaster,low,big,positive,7895,toasters,workerid_0002
free_class_elicitation,5,17,height,John sees a teenager.,people,teenager,medium,tall,positive,8903,teenagers,workerid_0002
free_class_elicitation,6,47,price,Sophie is shopping for berries and looks at the price of raspberries.,berries,raspberries,medium,expensive,positive,10783,berries,workerid_0002
free_class_elicitation,7,33,loudness_n,Monica is taking a walk in a park and hears the cry of a crow.,birds,crow,medium,loud,positive,9966,birds,workerid_0002
free_class_elicitation,8,53,size,Kathleen is looking in an insect terrarium and sees an ant.,insects,ant,low,big,positive,10615,ants,workerid_0002
free_class_elicitation,9,84,weight,Kim learns about the weight of a friend's new bike.,vehicles,bike,low,light,negative,6456,bikes,workerid_0002
free_class_elicitation,10,30,loudness_n,Daniel meets a friend at a church.,venue,church,low,quiet,negative,9495,churches,workerid_0002
free_class_elicitation,11,56,size,Veronica sees her friend's new truck.,vehicles,truck,high,small,negative,6502,trucks,workerid_0002
free_class_elicitation,12,64,speed,Julia is at a friend's house and sees their pet turtle come towards them.,pets,turtle,low,quick,positive,8818,turtles,workerid_0002
free_class_elicitation,13,26,length_duration,Stephanie is looking at a highway on Google Maps.,roads,highway,high,short,negative,12120,highways,workerid_0002
free_class_elicitation,14,44,price,Natalia is shopping for spices and looks at garlic.,spices,garlic,medium,cheap,negative,15631,spices,workerid_0002
free_class_elicitation,15,73,temperature_h,Tanya takes the first sip from a milkshake.,drinks,milkshake,low,cold,negative,9032,drinks,workerid_0002
free_class_elicitation,16,72,temperature,Michelle takes the first bite of her salad.,food,salad,medium,warm,positive,8376,salads,workerid_0002
free_class_elicitation,17,81,weight,Simon is helping a friend move and picks up their couch.,furniture,couch,high,heavy,positive,10734,furniture,workerid_0002
free_class_elicitation,18,51,size,Greg is at a gardening store and looks at a bush.,plants,bush,medium,small,negative,8368,bushes,workerid_0002
free_class_elicitation,19,83,weight,Laura is at a craft shop and picks up a piece of silk.,materials,silk,low,light,negative,11252,fabrics,workerid_0002
free_class_elicitation,20,35,loudness,Tom is in a room with a baby.,people,baby,high,loud,positive,9733,babies,workerid_0002
free_class_elicitation,21,23,length_duration,Mika thinks about reading her favorite novel.,readings,novel,high,long,positive,9736,books,workerid_0002
free_class_elicitation,22,68,strength,Alexander is hearing about the thunderstorm that is heading towards them.,storms,thunderstorm,medium,weak,negative,12852,storms,workerid_0002
free_class_elicitation,23,85,weight,Charles is at a grocery store and picks up a plum.,fruit,plum,low,heavy,positive,5692,plums,workerid_0002
free_class_elicitation,24,74,temperature,Melinda steps outside on a day in summer.,seasons,summer,high,warm,positive,7427,days,workerid_0002
free_class_elicitation,25,82,weight,Jasmine is walking outside and picks up a rock.,objects,rock,high,heavy,positive,5682,rocks,workerid_0002
free_class_elicitation,26,59,speed,William is in the park and sees a runner.,people,runner,high,slow,negative,6296,runners,workerid_0002
free_class_elicitation,27,32,loudness_n,Angela is spending her Saturday night at a concert.,venues,concert,high,quiet,negative,5185,concerts,workerid_0002
free_class_elicitation,28,58,size,Gary is taking a walk and sees a chihuahua.,dogs,chihuahua,low,small,negative,6006,dogs,workerid_0002
free_class_elicitation,29,14,hardness,Josh is in his bedroom and sits on a pillow.,furniture,pillow,low,hard,positive,5752,pillows,workerid_0002
free_class_elicitation,30,31,loudness_n,Gabriel is at a friend's place and hears his pet fish.,pets,fish,low,quiet,negative,9985,fish,workerid_0002
free_class_elicitation,31,61,speed,Jennifer wants to cook dinner and considers using a frying pan.,cookware,frying pan,medium,slow,negative,14064,pans,workerid_0002
free_class_elicitation,32,52,size,Lucas is at the zoo and sees an elephant.,animals,elephant,high,big,positive,9452,animals,workerid_0002
free_class_elicitation,33,87,width,Michael is driving on a downtown street.,roads,downtown street,medium,wide,positive,7093,streets,workerid_0002
free_class_elicitation,34,60,speed,Maya is at the zoo and watches a cheetah move.,animals,cheetah,high,slow,negative,8059,cheetahs,workerid_0002
free_class_elicitation,35,3,darkness,Stephen is at a bakery and looks at the color of a chocolate cake.,cakes,chocolate cake,low,light,positive,12054,cakes,workerid_0002
free_class_elicitation,36,71,strength,Anthony is examining the walls of a friend's new mansion.,walls,mansion,high,weak,negative,6533,walls,workerid_0002
free_class_elicitation,1,18,height,Charles is looking at a tulip.,flowers,tulip,medium,short,negative,8910,tulips,workerid_0003
free_class_elicitation,2,55,size,Josh is at an aquarium and sees a shark.,fish,shark,high,big,positive,13455,sharks,workerid_0003
free_class_elicitation,3,83,weight,Alicia is at a craft shop and picks up a piece of wool.,materials,wool,high,light,negative,13830,pieces of wool,workerid_0003
free_class_elicitation,4,60,speed,Veronica is at the zoo and watches a cheetah move.,animals,cheetah,high,fast,positive,8772,animals,workerid_0003
free_class_elicitation,5,25,length_duration,Melinda thinks about watching her favorite documentary.,entertainment,documentary,medium,long,positive,11276,documentaries ,workerid_0003
free_class_elicitation,6,4,darkness,Kim steps outside during the night.,times of day,night,low,dark,negative,12420,times of the day,workerid_0003
free_class_elicitation,7,16,height,Sophie is looking at a strip mall.,buildings,strip mall,low,short,negative,12578,strip malls,workerid_0003
free_class_elicitation,8,68,strength,William is hearing about the hurricane that is heading towards them.,storms,hurricane,high,weak,negative,9143,hurricanes,workerid_0003
free_class_elicitation,9,26,length_duration,Eric is looking at a street on Google Maps.,roads,street,medium,long,positive,8656,streets,workerid_0003
free_class_elicitation,10,57,size,Anthony is shopping at an appliances store and looks at a refrigerator. ,appliances,refrigerator,high,big,positive,12697,refrigerators,workerid_0003
free_class_elicitation,11,66,speed_f,Jennifer is at an airport and sees a glider in the air.,aircrafts,glider,low,fast,positive,11817,gliders,workerid_0003
free_class_elicitation,12,84,weight,Tom learns about the weight of a friend's new bike.,vehicles,bike,low,heavy,positive,9280,bikes,workerid_0003
free_class_elicitation,13,5,darkness,Alexander is writing with a piece of chalk and notices the color of the script.,writing utensils,piece of chalk,high,light,positive,17465,colors,workerid_0003
free_class_elicitation,14,45,price,Lucas wants to buy a bracelet and looks at one made of plastic.,bracelets,plastic,low,cheap,negative,12889,bracelets ,workerid_0003
free_class_elicitation,15,70,strength,Lee is painting and tries a new watercolor.,paints,watercolor,low,strong,positive,27140,watercolors,workerid_0003
free_class_elicitation,16,20,height,Greg is walking in a botanical garden and sees a redwood tree.,trees,redwood tree,high,short,negative,8909,redwood trees,workerid_0003
free_class_elicitation,17,80,weight,Angela is at an electronics store and picks up a laptop.,electronic devices,laptop,medium,light,negative,7343,laptops,workerid_0003
free_class_elicitation,18,67,strength,Jasmine watches a child lift up a box.,people,child,low,strong,positive,7000,children,workerid_0003
free_class_elicitation,19,50,price,Julia is considering different places for dinner and looks at the menu of a Korean restaurant.,restaurants,Korean restaurant,medium,expensive,positive,12372,restaurants ,workerid_0003
free_class_elicitation,20,6,darkness,Cameron is creating a flower bouquet and picks out a rose.,flowers,rose,medium,dark,negative,6718,roses,workerid_0003
free_class_elicitation,21,58,size,Michelle is taking a walk and sees a chihuahua.,dogs,chihuahua,low,small,negative,7960,dogs,workerid_0003
free_class_elicitation,22,14,hardness,Simon is in his bedroom and sits on a bedboard.,furniture,bedboard,high,soft,negative,10874,bedboards,workerid_0003
free_class_elicitation,23,69,strength,John is watching a cyclist lift weights.,athletes,cyclist,medium,strong,positive,8276,people,workerid_0003
free_class_elicitation,24,15,height,Kathleen is at a zoo and looks at a monkey.,animals,monkey,medium,short,negative,9880,monkeys ,workerid_0003
free_class_elicitation,25,1,darkness,Maya is going for a walk and notices the color of a crow.,birds,crow,low,dark,negative,8398,crows,workerid_0003
free_class_elicitation,26,82,weight,Michael is walking outside and picks up a stick.,objects,stick,medium,light,negative,11070,sticks,workerid_0003
free_class_elicitation,27,12,hardness,David picks up a banana.,fruit,banana,low,soft,negative,8479,bananas,workerid_0003
free_class_elicitation,28,24,length_duration,Monica sees a friend driving a limousine.,vehicles,limousine,high,short,negative,7343,limousines,workerid_0003
free_class_elicitation,29,2,darkness,Natalia bought a can of black paint and is testing it for the first time.,paint,black paint,low,light,positive,13256,shades of black,workerid_0003
free_class_elicitation,30,64,speed,Stephanie is at a friend's house and sees their pet rabbit come towards them.,pets,rabbit,high,slow,negative,8027,rabbits,workerid_0003
free_class_elicitation,31,87,width,Daniel is driving on a highway.,roads,highway,high,wide,positive,9074,highways,workerid_0003
free_class_elicitation,32,62,speed_f,Mika sees a motorcycle on the highway.,vehicles,motorcycle,high,fast,positive,11172,motorcycles,workerid_0003
free_class_elicitation,33,36,loudness_n,Robert is planning to move and reads about a nearby town.,places,town,medium,quiet,negative,12130,nearby towns,workerid_0003
free_class_elicitation,34,51,size,Gary is at a gardening store and looks at a bush.,plants,bush,medium,big,positive,6400,bushes,workerid_0003
free_class_elicitation,35,28,length_duration,Laura is considering listening to her favorite song.,audios,song,low,long,positive,6134,songs,workerid_0003
free_class_elicitation,36,75,temperature_h,Kim is in her kitchen and puts her hand in the pantry.,locations,pantry,medium,warm,positive,12912,pantries ,workerid_0003
free_class_elicitation,1,7,darkness,David takes a walk and notices the coat of a spaniel.,dogs,spaniel,medium,dark,negative,15225,coats,workerid_0004
free_class_elicitation,2,67,strength,Alexander watches a teenager lift up a box.,people,teenager,medium,strong,positive,10206,people,workerid_0004
free_class_elicitation,3,72,temperature,Julia takes the first bite of her salad.,food,salad,medium,cold,negative,8582,salads,workerid_0004
free_class_elicitation,4,42,price,Veronica is looking to rent a new place and checks out an apartment.,rentals,apartment,low,expensive,positive,3519,apartments,workerid_0004
free_class_elicitation,5,59,speed,Angela is in the park and sees a runner.,people,runner,high,slow,negative,3126,runners,workerid_0004
free_class_elicitation,6,20,height,Robert is walking in a botanical garden and sees a bonsai tree.,trees,bonsai tree,low,short,negative,5567,bonsai trees,workerid_0004
free_class_elicitation,7,3,darkness,Sophie is at a bakery and looks at the color of a cheesecake.,cakes,cheesecake,high,light,positive,5646,cheesecakes,workerid_0004
free_class_elicitation,8,22,length_duration,Gabriel is at a friend's house and notices the size of his pet hamster.,pets,hamster,medium,long,positive,11149,hamsters,workerid_0004
free_class_elicitation,9,35,loudness,Greg is in a room with an adult.,people,adult,low,loud,positive,4063,adults,workerid_0004
free_class_elicitation,10,85,weight,Simon is at a grocery store and picks up a watermelon.,fruit,watermelon,high,light,negative,4013,watermelons,workerid_0004
free_class_elicitation,11,46,price,William is clothing shopping and looks at a coat.,clothes,coat,medium,cheap,negative,4679,coats,workerid_0004
free_class_elicitation,12,32,loudness_n,Lucas is spending his Saturday night at a restaurant.,venues,restaurant,medium,noisy,positive,6142,restaurants,workerid_0004
free_class_elicitation,13,60,speed,Laura is at the zoo and watches a sloth move.,animals,sloth,low,slow,negative,3574,sloths,workerid_0004
free_class_elicitation,14,63,speed_f,Tom is travelling on his friend's new speedboat.,boats,speedboat,high,fast,positive,4103,speedboats,workerid_0004
free_class_elicitation,15,2,darkness,Claire bought a can of black paint and is testing it for the first time.,paint,black paint,low,dark,negative,13367,paint,workerid_0004
free_class_elicitation,16,80,weight,Cameron is at an electronics store and picks up a cell phone.,electronic devices,cell phone,low,heavy,positive,5887,cell phones,workerid_0004
free_class_elicitation,17,43,price,Daniel is shopping for shoes and looks at a pair of sneakers.,shoes,sneakers,medium,expensive,positive,2295,sneakers,workerid_0004
free_class_elicitation,18,8,darkness,Jennifer is at a zoo and notices the fur color of a panther.,animals,panther,low,light,positive,3205,panthers,workerid_0004
free_class_elicitation,19,70,strength,Anthony is painting and tries a new watercolor.,paints,watercolor,low,weak,negative,3686,watercolors,workerid_0004
free_class_elicitation,20,12,hardness,Kathleen picks up a melon.,fruit,melon,high,soft,negative,3733,melons,workerid_0004
free_class_elicitation,21,78,weight,Kim is at the zoo and watches a fish being lifted.,animals,fish,low,heavy,positive,2352,fish,workerid_0004
free_class_elicitation,22,74,temperature,Josh steps outside on a day in summer.,seasons,summer,high,cold,negative,3255,days,workerid_0004
free_class_elicitation,23,64,speed,Stephanie is at a friend's house and sees their pet cat come towards them.,pets,cat,medium,slow,negative,3767,cats,workerid_0004
free_class_elicitation,24,4,darkness,Charles steps outside during the dusk.,times of day,dusk,medium,dark,negative,16543,evenings,workerid_0004
free_class_elicitation,25,51,size,Michelle is at a gardening store and looks at a tree.,plants,tree,high,big,positive,3614,trees,workerid_0004
free_class_elicitation,26,39,loudness_n,Maya is at a lake and hears the sound of a powerboat.,boats,powerboat,high,loud,positive,2565,powerboats,workerid_0004
free_class_elicitation,27,29,loudness,Kim is listening to a choral concert.,concerts,choral concert,low,loud,positive,8186,concerts,workerid_0004
free_class_elicitation,28,28,length_duration,Michael is considering listening to his favorite podcast episode.,audios,podcast episode,medium,long,positive,3574,podcasts,workerid_0004
free_class_elicitation,29,81,weight,Melinda is helping a friend move and picks up their couch.,furniture,couch,high,heavy,positive,2502,couch,workerid_0004
free_class_elicitation,30,18,height,Monica is looking at a tulip.,flowers,tulip,medium,short,negative,3943,tulips,workerid_0004
free_class_elicitation,31,40,loudness,Jasmine wants to play music and tries out a bass guitar.,guitars,bass guitar,high,quiet,negative,3498,bass guitars,workerid_0004
free_class_elicitation,32,56,size,Natalia sees her friend's new smartcar.,vehicles,smartcar,low,small,negative,2764,smartcars,workerid_0004
free_class_elicitation,33,24,length_duration,Tanya sees a friend driving a smartcar.,vehicles,smartcar,low,short,negative,3501,smartcars,workerid_0004
free_class_elicitation,34,36,loudness_n,John is planning to move and reads about a nearby city.,places,city,high,quiet,negative,4328,cities,workerid_0004
free_class_elicitation,35,77,temperature_h,Alicia is at a restaurant and takes a taste of a muffin. ,desserts,muffin,medium,hot,positive,2066,muffins,workerid_0004
free_class_elicitation,36,31,loudness_n,Stephen is at a friend's place and hears his pet parrot.,pets,parrot,high,loud,positive,3083,parrots,workerid_0004
free_class_elicitation,1,5,darkness,Angela is writing with a pencil and notices the color of the script.,writing utensils,pencil,low,dark,negative,10544,colors,workerid_0005
free_class_elicitation,2,69,strength,Alexander is watching a wrestler lift weights.,athletes,wrestler,high,strong,positive,5453,people,workerid_0005
free_class_elicitation,3,88,width,Kim is standing at the bank of a creek.,waterways,creek,low,wide,positive,16389,creeks,workerid_0005
free_class_elicitation,4,57,size,Josh is shopping at an appliances store and looks at a refrigerator. ,appliances,refrigerator,high,big,positive,8293,refrigerators,workerid_0005
free_class_elicitation,5,14,hardness,Eric is in his bedroom and sits on a pillow.,furniture,pillow,low,hard,positive,5415,pillows,workerid_0005
free_class_elicitation,6,54,size,Michael is at a farmer's market and picks up a watermelon.,fruit,watermelon,high,small,negative,4721,watermelons,workerid_0005
free_class_elicitation,7,59,speed,Tom is in the park and sees a walker.,people,walker,low,slow,negative,4737,walkers,workerid_0005
free_class_elicitation,8,11,hardness,Daniel steps onto the wood floor of a room.,floors,wood,medium,hard,positive,5291,floors,workerid_0005
free_class_elicitation,9,46,price,Lucas is clothing shopping and looks at a suit.,clothes,suit,high,cheap,negative,3305,suits,workerid_0005
free_class_elicitation,10,36,loudness_n,Charles is planning to move and reads about a nearby city.,places,city,high,noisy,positive,6812,cities,workerid_0005
free_class_elicitation,11,3,darkness,Greg is at a bakery and looks at the color of a fruit cake.,cakes,fruit cake,medium,light,positive,22733,colors,workerid_0005
free_class_elicitation,12,9,hardness,Anthony is at a vegetable market and picks up a tomato.,vegetables,tomato,medium,hard,positive,5420,tomatoes,workerid_0005
free_class_elicitation,13,35,loudness,Alicia is in a room with a baby.,people,baby,high,loud,positive,3679,babies,workerid_0005
free_class_elicitation,14,78,weight,Stephen is at the zoo and watches a monkey being lifted.,animals,monkey,medium,heavy,positive,4971,monkies,workerid_0005
free_class_elicitation,15,30,loudness_n,John meets a friend at a church.,venue,church,low,noisy,positive,4244,churches,workerid_0005
free_class_elicitation,16,22,length_duration,Lee is at a friend's house and notices the size of his pet mouse.,pets,mouse,low,short,negative,3873,mice,workerid_0005
free_class_elicitation,17,62,speed_f,Michelle sees a car on the highway.,vehicles,car,medium,fast,positive,2409,cars,workerid_0005
free_class_elicitation,18,76,temperature_h,Sophie is spending her Saturday at a shopping mall.,places,shopping mall,medium,cold,negative,5212,days,workerid_0005
free_class_elicitation,19,47,price,Laura is shopping for berries and looks at the price of strawberries.,berries,strawberries,low,cheap,negative,26283,strawberries,workerid_0005
free_class_elicitation,20,73,temperature_h,Kim takes the first sip from a juice.,drinks,juice,medium,cold,negative,3972,juices,workerid_0005
free_class_elicitation,21,87,width,Melinda is driving on a downtown street.,roads,downtown street,medium,narrow,negative,2773,streets,workerid_0005
free_class_elicitation,22,12,hardness,Kathleen picks up a melon.,fruit,melon,high,soft,negative,4159,melons,workerid_0005
free_class_elicitation,23,15,height,Stephanie is at a zoo and looks at a monkey.,animals,monkey,medium,short,negative,4921,monkies,workerid_0005
free_class_elicitation,24,43,price,David is shopping for shoes and looks at a pair of sneakers.,shoes,sneakers,medium,expensive,positive,5415,sneakers,workerid_0005
free_class_elicitation,25,90,width,Mika is attempting to move furniture through the back door of her house.,doorways,back door,low,wide,positive,6331,furniture,workerid_0005
free_class_elicitation,26,63,speed_f,Cameron is travelling on his friend's new rowboat.,boats,rowboat,low,fast,positive,5491,rowboats,workerid_0005
free_class_elicitation,27,74,temperature,Gary steps outside on a day in summer.,seasons,summer,high,warm,positive,17254,days,workerid_0005
free_class_elicitation,28,61,speed,Gabriel wants to cook dinner and considers using an instant pot.,cookware,instant pot,high,quick,positive,6241,instant pots,workerid_0005
free_class_elicitation,29,16,height,Jennifer is looking at a skyscraper.,buildings,skyscraper,high,short,negative,4599,skyscrapers,workerid_0005
free_class_elicitation,30,84,weight,Robert learns about the weight of a friend's new motorcycle.,vehicles,motorcycle,medium,light,negative,4246,motorcycles,workerid_0005
free_class_elicitation,31,45,price,Jasmine wants to buy a bracelet and looks at one made of plastic.,bracelets,plastic,low,cheap,negative,4250,bracelets,workerid_0005
free_class_elicitation,32,23,length_duration,Monica thinks about reading her favorite story.,readings,story,medium,short,negative,4768,stories,workerid_0005
free_class_elicitation,33,44,price,Veronica is shopping for spices and looks at saffron.,spices,saffron,high,cheap,negative,6357,spices,workerid_0005
free_class_elicitation,34,64,speed,Tanya is at a friend's house and sees their pet turtle come towards them.,pets,turtle,low,slow,negative,6536,pets,workerid_0005
free_class_elicitation,35,42,price,Natalia is looking to rent a new place and checks out an apartment.,rentals,apartment,low,expensive,positive,6029,apartments,workerid_0005
free_class_elicitation,36,89,width,William is walking on a boulevard.,roads,boulevard,high,narrow,negative,4529,boulevards,workerid_0005
free_class_elicitation,1,84,weight,Tanya learns about the weight of a friend's new truck.,vehicles,truck,high,heavy,positive,17739,trucks,workerid_0006
free_class_elicitation,2,50,price,Charles is considering different places for dinner and looks at the menu of a Korean restaurant.,restaurants,Korean restaurant,medium,cheap,negative,20373,meals in resataurants,workerid_0006
free_class_elicitation,3,54,size,Jennifer is at a farmer's market and picks up a kumquat.,fruit,kumquat,low,big,positive,16961,kumquats,workerid_0006
free_class_elicitation,4,1,darkness,Gabriel is going for a walk and notices the color of a parrot.,birds,parrot,medium,light,positive,12809,animals,workerid_0006
free_class_elicitation,5,11,hardness,Michelle steps onto the carpet floor of a room.,floors,carpet,low,soft,negative,22941,kinds of carpet,workerid_0006
free_class_elicitation,6,46,price,Jasmine is clothing shopping and looks at a coat.,clothes,coat,medium,expensive,positive,62229,clothes,workerid_0006
free_class_elicitation,7,73,temperature_h,Greg takes the first sip from a coffee.,drinks,coffee,high,cold,negative,19130,hot coffees,workerid_0006
free_class_elicitation,8,36,loudness_n,Anthony is planning to move and reads about a nearby village.,places,village,low,quiet,negative,13819,places to live,workerid_0006
free_class_elicitation,9,81,weight,Tom is helping a friend move and picks up their chair.,furniture,chair,medium,light,negative,7668,chairs,workerid_0006
free_class_elicitation,10,59,speed,Stephen is in the park and sees a jogger.,people,jogger,medium,slow,negative,8023,joggers,workerid_0006
free_class_elicitation,11,52,size,Maya is at the zoo and sees a mouse.,animals,mouse,low,big,positive,8175,mice,workerid_0006
free_class_elicitation,12,13,hardness,Laura is at a hardware store and picks up a piece of plastic.,materials,plastic,medium,soft,negative,20660,pieces of plastic she's encountered,workerid_0006
free_class_elicitation,13,41,price,Daniel is at a decoration shop and looks at a statue made of platinum.,statues,platinum,high,expensive,positive,44911,kinds of statues,workerid_0006
free_class_elicitation,14,25,length_duration,Michael thinks about watching his favorite documentary.,entertainment,documentary,medium,long,positive,21667,documentaries or movies,workerid_0006
free_class_elicitation,15,49,price,Kathleen is at a liquor store and wants to buy a six-pack of beer.,alcoholic drinks,six-pack of beer,low,expensive,positive,8186,beer,workerid_0006
free_class_elicitation,16,9,hardness,Veronica is at a vegetable market and picks up a mushroom.,vegetables,mushroom,low,soft,negative,15064,mushrooms,workerid_0006
free_class_elicitation,17,85,weight,Kim is at a grocery store and picks up a orange.,fruit,orange,medium,light,negative,17491,oranges,workerid_0006
free_class_elicitation,18,27,length_duration,Mika looks up information about an upcoming triathlon race.,races,triathlon race,high,long,positive,5839,races,workerid_0006
free_class_elicitation,19,14,hardness,Alexander is in his bedroom and sits on a bedboard.,furniture,bedboard,high,soft,negative,13415,bedboards,workerid_0006
free_class_elicitation,20,55,size,Stephanie is at an aquarium and sees a tuna.,fish,tuna,medium,big,positive,5734,fish,workerid_0006
free_class_elicitation,21,80,weight,Josh is at an electronics store and picks up a cell phone.,electronic devices,cell phone,low,heavy,positive,8877,cell phones,workerid_0006
free_class_elicitation,22,20,height,Lee is walking in a botanical garden and sees a redwood tree.,trees,redwood tree,high,short,negative,7951,redwoods,workerid_0006
free_class_elicitation,23,63,speed_f,Gary is travelling on his friend's new speedboat.,boats,speedboat,high,slow,negative,6188,speedboats,workerid_0006
free_class_elicitation,24,17,height,Natalia sees an adult.,people,adult,high,short,negative,5890,adults,workerid_0006
free_class_elicitation,25,7,darkness,Kim takes a walk and notices the coat of a poodle.,dogs,poodle,high,light,positive,14809,poodles,workerid_0006
free_class_elicitation,26,33,loudness_n,David is taking a walk in a park and hears the cry of a finch.,birds,finch,low,quiet,negative,8679,birds,workerid_0006
free_class_elicitation,27,78,weight,Claire is at the zoo and watches a fish being lifted.,animals,fish,low,heavy,positive,13910,things you pick up,workerid_0006
free_class_elicitation,28,53,size,Monica is looking in an insect terrarium and sees a moth.,insects,moth,medium,small,negative,9797,insects,workerid_0006
free_class_elicitation,29,67,strength,Robert watches a child lift up a box.,people,child,low,weak,negative,10688,people,workerid_0006
free_class_elicitation,30,88,width,John is standing at the bank of a river.,waterways,river,high,wide,positive,5699,rivers,workerid_0006
free_class_elicitation,31,15,height,Eric is at a zoo and looks at a monkey.,animals,monkey,medium,tall,positive,5224,monkeys,workerid_0006
free_class_elicitation,32,21,length_duration,Sophie is at a pet store and notices the length of a dachshund.,dogs,dachshund,high,short,negative,7764,dachshunds,workerid_0006
free_class_elicitation,33,19,height,Simon sees a basketball player.,people,basketball player,high,tall,positive,7500,people,workerid_0006
free_class_elicitation,34,69,strength,Cameron is watching a golfer lift weights.,athletes,golfer,low,weak,negative,12051,people,workerid_0006
free_class_elicitation,35,79,weight,Lucas lifts up a baby.,people,baby,low,heavy,positive,5097,babies,workerid_0006
free_class_elicitation,36,58,size,Angela is taking a walk and sees a poodle.,dogs,poodle,medium,big,positive,6899,dogs,workerid_0006
free_class_elicitation,1,68,strength,Michelle is hearing about the hurricane that is heading towards them.,storms,hurricane,high,weak,negative,13662,Hurricanes,workerid_0007
free_class_elicitation,2,82,weight,Charles is walking outside and picks up a rock.,objects,rock,high,light,negative,8533,Rocks,workerid_0007
free_class_elicitation,3,51,size,Josh is at a gardening store and looks at a tree.,plants,tree,high,big,positive,5872,Trees,workerid_0007
free_class_elicitation,4,17,height,Natalia sees a child.,people,child,low,short,negative,5464,Children,workerid_0007
free_class_elicitation,5,41,price,Maya is at a decoration shop and looks at a statue made of bronze.,statues,bronze,medium,cheap,negative,11904,Bronze statues,workerid_0007
free_class_elicitation,6,58,size,Claire is taking a walk and sees a chihuahua.,dogs,chihuahua,low,big,positive,17935,Chihuahuas,workerid_0007
free_class_elicitation,7,84,weight,Kathleen learns about the weight of a friend's new motorcycle.,vehicles,motorcycle,medium,heavy,positive,6512,Motorcycles,workerid_0007
free_class_elicitation,8,11,hardness,Mika steps onto the wood floor of a room.,floors,wood,medium,soft,negative,7659,Floors,workerid_0007
free_class_elicitation,9,3,darkness,William is at a bakery and looks at the color of a cheesecake.,cakes,cheesecake,high,dark,negative,4727,Cheesecakes,workerid_0007
free_class_elicitation,10,62,speed_f,Robert sees a car on the highway.,vehicles,car,medium,slow,negative,6728,Cars on the highway,workerid_0007
free_class_elicitation,11,50,price,Julia is considering different places for dinner and looks at the menu of a Chinese restaurant.,restaurants,Chinese restaurant,low,expensive,positive,11864,Chinese restaurants,workerid_0007
free_class_elicitation,12,28,length_duration,Eric is considering listening to his favorite opera.,audios,opera,high,long,positive,19888,Operas,workerid_0007
free_class_elicitation,13,18,height,Simon is looking at a tulip.,flowers,tulip,medium,short,negative,4575,Flowers,workerid_0007
free_class_elicitation,14,64,speed,Sophie is at a friend's house and sees their pet rabbit come towards them.,pets,rabbit,high,quick,positive,9151,Rabbits,workerid_0007
free_class_elicitation,15,27,length_duration,Michael looks up information about an upcoming relay race.,races,relay race,medium,long,positive,7062,Relay races,workerid_0007
free_class_elicitation,16,43,price,Stephen is shopping for shoes and looks at a pair of sandals.,shoes,sandals,low,expensive,positive,5520,Sandals,workerid_0007
free_class_elicitation,17,20,height,Kim is walking in a botanical garden and sees a bonsai tree.,trees,bonsai tree,low,short,negative,6479,Bonsai trees,workerid_0007
free_class_elicitation,18,25,length_duration,Alicia thinks about watching her favorite movie.,entertainment,movie,high,long,positive,7560,Movies,workerid_0007
free_class_elicitation,19,10,hardness,Daniel is eating a piece of chocolate.,candies,piece of chocolate,medium,hard,positive,5023,Chocolates,workerid_0007
free_class_elicitation,20,38,loudness,Greg is in a forest and hears a owl.,birds,owl,low,loud,positive,5041,Owls,workerid_0007
free_class_elicitation,21,19,height,Veronica sees a jockey.,people,jockey,low,short,negative,33824,jockeys,workerid_0007
free_class_elicitation,22,80,weight,Melinda is at an electronics store and picks up a printer.,electronic devices,printer,high,light,negative,4639,Printers,workerid_0007
free_class_elicitation,23,9,hardness,Cameron is at a vegetable market and picks up a mushroom.,vegetables,mushroom,low,soft,negative,5440,Mushrooms,workerid_0007
free_class_elicitation,24,63,speed_f,Monica is travelling on her friend's new speedboat.,boats,speedboat,high,fast,positive,4482,Speedboats,workerid_0007
free_class_elicitation,25,81,weight,Jennifer is helping a friend move and picks up their chair.,furniture,chair,medium,light,negative,4637,Chairs,workerid_0007
free_class_elicitation,26,32,loudness_n,Alexander is spending his Saturday night at a concert.,venues,concert,high,quiet,negative,15825,Auditoriums,workerid_0007
free_class_elicitation,27,83,weight,Gary is at a craft shop and picks up a piece of wool.,materials,wool,high,light,negative,7856,Fabric,workerid_0007
free_class_elicitation,28,53,size,David is looking in an insect terrarium and sees an ant.,insects,ant,low,small,negative,6352,Insects,workerid_0007
free_class_elicitation,29,87,width,Anthony is driving on a highway.,roads,highway,high,wide,positive,5815,Highways,workerid_0007
free_class_elicitation,30,69,strength,Angela is watching a cyclist lift weights.,athletes,cyclist,medium,weak,negative,11602,Cyclists,workerid_0007
free_class_elicitation,31,23,length_duration,Gabriel thinks about reading his favorite poem.,readings,poem,low,short,negative,4304,Poems,workerid_0007
free_class_elicitation,32,90,width,John is attempting to move furniture through the patio door of his house.,doorways,patio door,medium,wide,positive,6831,Doors,workerid_0007
free_class_elicitation,33,78,weight,Laura is at the zoo and watches a fish being lifted.,animals,fish,low,heavy,positive,8417,Fish,workerid_0007
free_class_elicitation,34,24,length_duration,Lucas sees a friend driving a pick-up truck.,vehicles,pick-up truck,medium,long,positive,6958,Pickup trucks,workerid_0007
free_class_elicitation,35,14,hardness,Stephanie is in her bedroom and sits on a pillow.,furniture,pillow,low,hard,positive,3879,Pillows,workerid_0007
free_class_elicitation,36,26,length_duration,Kim is looking at a street on Google Maps.,roads,street,medium,long,positive,9010,Streets on Google maps,workerid_0007
free_class_elicitation,1,13,hardness,Gary is at a hardware store and picks up a piece of wood.,materials,wood,high,soft,negative,11245,other pieces of wood.,workerid_0008
free_class_elicitation,2,38,loudness,Veronica is in a forest and hears a mockingbird .,birds,mockingbird ,high,quiet,negative,28360,locations,workerid_0008
free_class_elicitation,3,66,speed_f,Lucas is at an airport and sees a helicopter in the air.,aircrafts,helicopter,medium,fast,positive,7726,vehicles,workerid_0008
free_class_elicitation,4,90,width,Alexander is attempting to move furniture through the patio door of his house.,doorways,patio door,medium,narrow,negative,16505,the furniture,workerid_0008
free_class_elicitation,5,11,hardness,Claire steps onto the carpet floor of a room.,floors,carpet,low,soft,negative,5576,carpets,workerid_0008
free_class_elicitation,6,85,weight,Laura is at a grocery store and picks up a watermelon.,fruit,watermelon,high,heavy,positive,5240,fruits,workerid_0008
free_class_elicitation,7,28,length_duration,Kim is considering listening to her favorite podcast episode.,audios,podcast episode,medium,short,negative,5160,podcasts,workerid_0008
free_class_elicitation,8,52,size,Cameron is at the zoo and sees an elephant.,animals,elephant,high,big,positive,4296,animals,workerid_0008
free_class_elicitation,9,7,darkness,Charles takes a walk and notices the coat of a pitbull.,dogs,pitbull,low,light,positive,8425,coats of animals,workerid_0008
free_class_elicitation,10,29,loudness,Daniel is listening to a rock concert.,concerts,rock concert,high,loud,positive,8479,music,workerid_0008
free_class_elicitation,11,83,weight,Tanya is at a craft shop and picks up a piece of cotton.,materials,cotton,medium,light,negative,13783,things at the craft shop,workerid_0008
free_class_elicitation,12,69,strength,Kathleen is watching a cyclist lift weights.,athletes,cyclist,medium,weak,negative,8544,other weight lifters,workerid_0008
free_class_elicitation,13,48,price,Gabriel is at the butchershop and looks at a piece of pork.,meat,pork,low,cheap,negative,5792,meats,workerid_0008
free_class_elicitation,14,31,loudness_n,Kim is at a friend's place and hears her pet fish.,pets,fish,low,loud,positive,7040,things in the room,workerid_0008
free_class_elicitation,15,40,loudness,Anthony wants to play music and tries out an acoustic guitar.,guitars,acoustic guitar,medium,loud,positive,7080,other guitars,workerid_0008
free_class_elicitation,16,5,darkness,Robert is writing with a piece of chalk and notices the color of the script.,writing utensils,piece of chalk,high,dark,negative,11745,other colors used on similar items,workerid_0008
free_class_elicitation,17,19,height,Greg sees a jockey.,people,jockey,low,short,negative,4295,people,workerid_0008
free_class_elicitation,18,1,darkness,Jasmine is going for a walk and notices the color of a seagull.,birds,seagull,high,light,positive,4641,colors,workerid_0008
free_class_elicitation,19,26,length_duration,Maya is looking at a street on Google Maps.,roads,street,medium,short,negative,4929,streets,workerid_0008
free_class_elicitation,20,10,hardness,William is eating a marshmallow.,candies,marshmallow,low,hard,positive,7255,marshmallows,workerid_0008
free_class_elicitation,21,76,temperature_h,Lee is spending his Saturday at a sauna.,places,sauna,high,hot,positive,4377,environments,workerid_0008
free_class_elicitation,22,81,weight,Michelle is helping a friend move and picks up their couch.,furniture,couch,high,light,negative,5637,furniture,workerid_0008
free_class_elicitation,23,55,size,Michael is at an aquarium and sees a tuna.,fish,tuna,medium,big,positive,4712,fish,workerid_0008
free_class_elicitation,24,14,hardness,Jennifer is in her bedroom and sits on a pillow.,furniture,pillow,low,hard,positive,4049,pillows,workerid_0008
free_class_elicitation,25,34,loudness_n,Stephen is listening to a friend playing the harp.,instruments,harp,low,quiet,negative,6319,instruments,workerid_0008
free_class_elicitation,26,3,darkness,Stephanie is at a bakery and looks at the color of a chocolate cake.,cakes,chocolate cake,low,light,positive,5370,food,workerid_0008
free_class_elicitation,27,43,price,Josh is shopping for shoes and looks at a pair of sneakers.,shoes,sneakers,medium,expensive,positive,3123,sneakers,workerid_0008
free_class_elicitation,28,84,weight,John learns about the weight of a friend's new bike.,vehicles,bike,low,light,negative,2702,bikes,workerid_0008
free_class_elicitation,29,15,height,Sophie is at a zoo and looks at a penguin.,animals,penguin,low,short,negative,2870,penguins,workerid_0008
free_class_elicitation,30,70,strength,Julia is painting and tries a new oil paint.,paints,oil paint,high,weak,negative,5680,paints,workerid_0008
free_class_elicitation,31,77,temperature_h,Eric is at a restaurant and takes a taste of a chocolate fondue. ,desserts,chocolate fondue,high,hot,positive,4009,fondues,workerid_0008
free_class_elicitation,32,25,length_duration,Alicia thinks about watching her favorite movie.,entertainment,movie,high,short,negative,5078,movie lengths,workerid_0008
free_class_elicitation,33,39,loudness_n,Simon is at a lake and hears the sound of a sailboat.,boats,sailboat,medium,loud,positive,3704,sailboats,workerid_0008
free_class_elicitation,34,61,speed,Melinda wants to cook dinner and considers using a crockpot.,cookware,crockpot,low,quick,positive,8960,meals in the crockpot,workerid_0008
free_class_elicitation,35,62,speed_f,Natalia sees a car on the highway.,vehicles,car,medium,fast,positive,2960,cars,workerid_0008
free_class_elicitation,36,36,loudness_n,Monica is planning to move and reads about a nearby town.,places,town,medium,quiet,negative,13127,town noises,workerid_0008
free_class_elicitation,1,64,speed,Alexander is at a friend's house and sees their pet turtle come towards them.,pets,turtle,low,slow,negative,28887,animals,workerid_0009
free_class_elicitation,2,90,width,Josh is attempting to move furniture through the back door of his house.,doorways,back door,low,narrow,negative,17615,places in the house.,workerid_0009
free_class_elicitation,3,15,height,Lucas is at a zoo and looks at a penguin.,animals,penguin,low,short,negative,67767,animals,workerid_0009
free_class_elicitation,4,5,darkness,Gabriel is writing with a pencil and notices the color of the script.,writing utensils,pencil,low,dark,negative,17408,pencils,workerid_0009
free_class_elicitation,5,13,hardness,Cameron is at a hardware store and picks up a piece of cotton.,materials,cotton,low,soft,negative,13744,materials.,workerid_0009
free_class_elicitation,6,33,loudness_n,Daniel is taking a walk in a park and hears the cry of a finch.,birds,finch,low,quiet,negative,51927,species of birds.,workerid_0009
free_class_elicitation,7,40,loudness,Tanya wants to play music and tries out an ukelele.,guitars,ukelele,low,loud,positive,51800,instruments.,workerid_0009
free_class_elicitation,8,89,width,Jennifer is walking on a country lane.,roads,country lane,low,wide,positive,12231,lanes,workerid_0009
free_class_elicitation,9,6,darkness,Laura is creating a flower bouquet and picks out a dahlia.,flowers,dahlia,low,light,positive,19000,flowers,workerid_0009
free_class_elicitation,10,21,length_duration,Anthony is at a pet store and notices the length of a chihuahua.,dogs,chihuahua,low,long,positive,20472,dogs,workerid_0009
free_class_elicitation,11,29,loudness,Kim is listening to a choral concert.,concerts,choral concert,low,loud,positive,15936,choral concert,workerid_0009
free_class_elicitation,12,44,price,Natalia is shopping for spices and looks at salt.,spices,salt,low,expensive,positive,91976,spices,workerid_0009
free_class_elicitation,13,10,hardness,Eric is eating a piece of chocolate.,candies,piece of chocolate,medium,soft,negative,56855,chocolate,workerid_0009
free_class_elicitation,14,76,temperature_h,Robert is spending his Saturday at a shopping mall.,places,shopping mall,medium,cold,negative,71040,places,workerid_0009
free_class_elicitation,15,74,temperature,Maya steps outside on a day in fall.,seasons,fall,medium,cold,negative,101639,falls,workerid_0009
free_class_elicitation,16,85,weight,John is at a grocery store and picks up a orange.,fruit,orange,medium,light,negative,14192,oranges,workerid_0009
free_class_elicitation,17,50,price,Julia is considering different places for dinner and looks at the menu of a Korean restaurant.,restaurants,Korean restaurant,medium,cheap,negative,73488,Korean restaurants,workerid_0009
free_class_elicitation,18,63,speed_f,Tom is travelling on his friend's new sailboat.,boats,sailboat,medium,slow,negative,41392,sailboats,workerid_0009
free_class_elicitation,19,24,length_duration,Charles sees a friend driving a pick-up truck.,vehicles,pick-up truck,medium,long,positive,15863,trucks,workerid_0009
free_class_elicitation,20,1,darkness,Kim is going for a walk and notices the color of a parrot.,birds,parrot,medium,light,positive,7831,parrots,workerid_0009
free_class_elicitation,21,20,height,Jasmine is walking in a botanical garden and sees an alpine tree.,trees,alpine tree,medium,tall,positive,13295,alpine trees,workerid_0009
free_class_elicitation,22,73,temperature_h,Simon takes the first sip from a juice.,drinks,juice,medium,hot,positive,55383,juice,workerid_0009
free_class_elicitation,23,51,size,Mika is at a gardening store and looks at a bush.,plants,bush,medium,big,positive,15255,bushes,workerid_0009
free_class_elicitation,24,75,temperature_h,Kathleen is in her kitchen and puts her hand in the pantry.,locations,pantry,medium,warm,positive,17951,pantries,workerid_0009
free_class_elicitation,25,87,width,Melinda is driving on a highway.,roads,highway,high,narrow,negative,49423,highways,workerid_0009
free_class_elicitation,26,77,temperature_h,Lee is at a restaurant and takes a taste of a chocolate fondue. ,desserts,chocolate fondue,high,cold,negative,65383,chocolate,workerid_0009
free_class_elicitation,27,72,temperature,Greg takes the first bite of his soup.,food,soup,high,cold,negative,40664,soups,workerid_0009
free_class_elicitation,28,27,length_duration,Claire looks up information about an upcoming triathlon race.,races,triathlon race,high,short,negative,10879,races,workerid_0009
free_class_elicitation,29,67,strength,Sophie watches an adult lift up a box.,people,adult,high,weak,negative,116288,adults,workerid_0009
free_class_elicitation,30,46,price,William is clothing shopping and looks at a suit.,clothes,suit,high,cheap,negative,37487,suits,workerid_0009
free_class_elicitation,31,62,speed_f,David sees a motorcycle on the highway.,vehicles,motorcycle,high,fast,positive,9775,motorcycles,workerid_0009
free_class_elicitation,32,86,width,Stephanie is in a forest and sees a bear den.,dens,bear den,high,wide,positive,8384,bear den,workerid_0009
free_class_elicitation,33,30,loudness_n,Veronica meets a friend at a party.,venue,party,high,noisy,positive,5696,parties,workerid_0009
free_class_elicitation,34,53,size,Monica is looking in an insect terrarium and sees a spider.,insects,spider,high,big,positive,9608,spiders,workerid_0009
free_class_elicitation,35,4,darkness,Angela steps outside during the day.,times of day,day,high,light,positive,10272,days,workerid_0009
free_class_elicitation,36,17,height,Stephen sees an adult.,people,adult,high,tall,positive,5600,adults,workerid_0009
free_class_elicitation,1,50,price,Gabriel is considering different places for dinner and looks at the menu of a Korean restaurant.,restaurants,Korean restaurant,medium,cheap,negative,15284,restaurants,workerid_0010
free_class_elicitation,2,27,length_duration,Julia looks up information about an upcoming triathlon race.,races,triathlon race,high,short,negative,11400,races,workerid_0010
free_class_elicitation,3,81,weight,William is helping a friend move and picks up their chair.,furniture,chair,medium,heavy,positive,10439,chairs,workerid_0010
free_class_elicitation,4,65,speed,Natalia is taking a walk with an adult.,people,adult,high,slow,negative,17102,people,workerid_0010
free_class_elicitation,5,33,loudness_n,Michelle is taking a walk in a park and hears the cry of a crow.,birds,crow,medium,loud,positive,10484,birds,workerid_0010
free_class_elicitation,6,87,width,Sophie is driving on a side road.,roads,side road,low,narrow,negative,8940,roads,workerid_0010
free_class_elicitation,7,48,price,Gary is at the butchershop and looks at a piece of chicken.,meat,chicken,medium,cheap,negative,7224,meats,workerid_0010
free_class_elicitation,8,80,weight,Monica is at an electronics store and picks up a printer.,electronic devices,printer,high,light,negative,9752,printers,workerid_0010
free_class_elicitation,9,43,price,Charles is shopping for shoes and looks at a pair of boots.,shoes,boots,high,cheap,negative,8030,boots,workerid_0010
free_class_elicitation,10,6,darkness,Melinda is creating a flower bouquet and picks out a dahlia.,flowers,dahlia,low,light,positive,9250,flowers,workerid_0010
free_class_elicitation,11,60,speed,Lucas is at the zoo and watches a sloth move.,animals,sloth,low,fast,positive,10270,animals,workerid_0010
free_class_elicitation,12,28,length_duration,Veronica is considering listening to her favorite song.,audios,song,low,long,positive,6960,songs,workerid_0010
free_class_elicitation,13,1,darkness,Kim is going for a walk and notices the color of a parrot.,birds,parrot,medium,light,positive,6835,birds,workerid_0010
free_class_elicitation,14,90,width,Jennifer is attempting to move furniture through the back door of her house.,doorways,back door,low,wide,positive,13662,furniture,workerid_0010
free_class_elicitation,15,47,price,Simon is shopping for berries and looks at the price of raspberries.,berries,raspberries,medium,expensive,positive,7649,fruits,workerid_0010
free_class_elicitation,16,72,temperature,Eric takes the first bite of his soup.,food,soup,high,cold,negative,8625,food,workerid_0010
free_class_elicitation,17,9,hardness,Kim is at a vegetable market and picks up a mushroom.,vegetables,mushroom,low,soft,negative,25697,mushrooms,workerid_0010
free_class_elicitation,18,49,price,Alicia is at a liquor store and wants to buy a six-pack of beer.,alcoholic drinks,six-pack of beer,low,cheap,negative,12201,stores,workerid_0010
free_class_elicitation,19,62,speed_f,Stephanie sees a motorcycle on the highway.,vehicles,motorcycle,high,fast,positive,10930,vehicles,workerid_0010
free_class_elicitation,20,78,weight,Anthony is at the zoo and watches an elephant being lifted.,animals,elephant,high,heavy,positive,8686,animals,workerid_0010
free_class_elicitation,21,26,length_duration,Mika is looking at a street on Google Maps.,roads,street,medium,short,negative,7571,roads,workerid_0010
free_class_elicitation,22,66,speed_f,Tanya is at an airport and sees a glider in the air.,aircrafts,glider,low,slow,negative,11121,airplanes,workerid_0010
free_class_elicitation,23,20,height,Cameron is walking in a botanical garden and sees an alpine tree.,trees,alpine tree,medium,short,negative,6833,trees,workerid_0010
free_class_elicitation,24,70,strength,Josh is painting and tries a new watercolor.,paints,watercolor,low,weak,negative,10201,paints,workerid_0010
free_class_elicitation,25,79,weight,Laura lifts up a baby.,people,baby,low,light,negative,19076,people,workerid_0010
free_class_elicitation,26,11,hardness,Jasmine steps onto the carpet floor of a room.,floors,carpet,low,hard,positive,13953,carpets,workerid_0010
free_class_elicitation,27,67,strength,Michael watches an adult lift up a box.,people,adult,high,strong,positive,9614,people,workerid_0010
free_class_elicitation,28,88,width,Stephen is standing at the bank of a stream.,waterways,stream,medium,narrow,negative,9176,streams,workerid_0010
free_class_elicitation,29,53,size,Angela is looking in an insect terrarium and sees a spider.,insects,spider,high,big,positive,8651,spiders,workerid_0010
free_class_elicitation,30,39,loudness_n,John is at a lake and hears the sound of a powerboat.,boats,powerboat,high,loud,positive,15498,sounds,workerid_0010
free_class_elicitation,31,75,temperature_h,Robert is in his kitchen and puts his hand in the pantry.,locations,pantry,medium,warm,positive,13011,rooms,workerid_0010
free_class_elicitation,32,23,length_duration,Claire thinks about reading her favorite poem.,readings,poem,low,long,positive,6802,poems,workerid_0010
free_class_elicitation,33,35,loudness,Alexander is in a room with a baby.,people,baby,high,loud,positive,12877,people,workerid_0010
free_class_elicitation,34,19,height,Tom sees a golfer.,people,golfer,medium,short,negative,8415,people,workerid_0010
free_class_elicitation,35,42,price,David is looking to rent a new place and checks out a house.,rentals,house,medium,expensive,positive,8691,houses,workerid_0010
free_class_elicitation,36,17,height,Greg sees an adult.,people,adult,high,short,negative,6463,people,workerid_0010
free_class_elicitation,1,35,loudness,Eric is in a room with an adult.,people,adult,low,loud,positive,6933,people,workerid_0011
free_class_elicitation,2,64,speed,Jennifer is at a friend's house and sees their pet turtle come towards them.,pets,turtle,low,slow,negative,12714,animals,workerid_0011
free_class_elicitation,3,13,hardness,Tom is at a hardware store and picks up a piece of plastic.,materials,plastic,medium,hard,positive,40396,materials,workerid_0011
free_class_elicitation,4,28,length_duration,Greg is considering listening to his favorite opera.,audios,opera,high,short,negative,10403,operas,workerid_0011
free_class_elicitation,5,32,loudness_n,Josh is spending his Saturday night at a concert.,venues,concert,high,quiet,negative,7325,concerts,workerid_0011
free_class_elicitation,6,60,speed,Alexander is at the zoo and watches an elephant move.,animals,elephant,medium,slow,negative,13737,animals,workerid_0011
free_class_elicitation,7,21,length_duration,Monica is at a pet store and notices the length of a chihuahua.,dogs,chihuahua,low,short,negative,7538,dogs,workerid_0011
free_class_elicitation,8,70,strength,John is painting and tries a new oil paint.,paints,oil paint,high,strong,positive,8396,paints,workerid_0011
free_class_elicitation,9,8,darkness,Daniel is at a zoo and notices the fur color of a tiger.,animals,tiger,medium,light,positive,8696,tigers,workerid_0011
free_class_elicitation,10,46,price,Kim is clothing shopping and looks at a shirt.,clothes,shirt,low,cheap,negative,11972,shirts,workerid_0011
free_class_elicitation,11,11,hardness,Gabriel steps onto the tile floor of a room.,floors,tile,high,soft,negative,12786,tile,workerid_0011
free_class_elicitation,12,24,length_duration,Kim sees a friend driving a smartcar.,vehicles,smartcar,low,short,negative,6668,cars,workerid_0011
free_class_elicitation,13,5,darkness,Veronica is writing with a pen and notices the color of the script.,writing utensils,pen,medium,light,positive,22651,pens,workerid_0011
free_class_elicitation,14,71,strength,Robert is examining the walls of a friend's new tent.,walls,tent,low,strong,positive,12404,tents,workerid_0011
free_class_elicitation,15,86,width,Alicia is in a forest and sees a bear den.,dens,bear den,high,wide,positive,16414,dens,workerid_0011
free_class_elicitation,16,73,temperature_h,Kathleen takes the first sip from a coffee.,drinks,coffee,high,hot,positive,8298,drinks,workerid_0011
free_class_elicitation,17,6,darkness,Mika is creating a flower bouquet and picks out a rose.,flowers,rose,medium,dark,negative,11926,roses,workerid_0011
free_class_elicitation,18,55,size,David is at an aquarium and sees a tuna.,fish,tuna,medium,small,negative,6775,tuna,workerid_0011
free_class_elicitation,19,18,height,Laura is looking at a pansy.,flowers,pansy,low,tall,positive,14288,flowers,workerid_0011
free_class_elicitation,20,63,speed_f,Michael is travelling on his friend's new sailboat.,boats,sailboat,medium,fast,positive,8348,sailboats,workerid_0011
free_class_elicitation,21,20,height,Charles is walking in a botanical garden and sees a redwood tree.,trees,redwood tree,high,short,negative,7527,redwood trees,workerid_0011
free_class_elicitation,22,48,price,Tanya is at the butchershop and looks at a piece of chicken.,meat,chicken,medium,cheap,negative,6058,meats,workerid_0011
free_class_elicitation,23,61,speed,Julia wants to cook dinner and considers using a frying pan.,cookware,frying pan,medium,slow,negative,8589,pans,workerid_0011
free_class_elicitation,24,3,darkness,Simon is at a bakery and looks at the color of a fruit cake.,cakes,fruit cake,medium,light,positive,15690,fruit cakes,workerid_0011
free_class_elicitation,25,15,height,Cameron is at a zoo and looks at a penguin.,animals,penguin,low,tall,positive,5851,penguins,workerid_0011
free_class_elicitation,26,45,price,Jasmine wants to buy a bracelet and looks at one made of plastic.,bracelets,plastic,low,cheap,negative,10150,bracelets,workerid_0011
free_class_elicitation,27,39,loudness_n,Sophie is at a lake and hears the sound of a powerboat.,boats,powerboat,high,loud,positive,14659,boats,workerid_0011
free_class_elicitation,28,52,size,Angela is at the zoo and sees an elephant.,animals,elephant,high,big,positive,4335,animals,workerid_0011
free_class_elicitation,29,69,strength,Melinda is watching a golfer lift weights.,athletes,golfer,low,weak,negative,8549,athletes,workerid_0011
free_class_elicitation,30,14,hardness,Natalia is in her bedroom and sits on a pillow.,furniture,pillow,low,hard,positive,6628,pillows,workerid_0011
free_class_elicitation,31,51,size,Stephanie is at a gardening store and looks at a bush.,plants,bush,medium,small,negative,6261,bushes,workerid_0011
free_class_elicitation,32,1,darkness,Anthony is going for a walk and notices the color of a seagull.,birds,seagull,high,dark,negative,6741,segalls,workerid_0011
free_class_elicitation,33,29,loudness,Stephen is listening to a rock concert.,concerts,rock concert,high,loud,positive,4690,concerts,workerid_0011
free_class_elicitation,34,22,length_duration,Maya is at a friend's house and notices the size of her pet mouse.,pets,mouse,low,long,positive,5674,mice,workerid_0011
free_class_elicitation,35,47,price,Lucas is shopping for berries and looks at the price of raspberries.,berries,raspberries,medium,expensive,positive,9450,berries,workerid_0011
free_class_elicitation,36,89,width,Claire is walking on a boulevard.,roads,boulevard,high,narrow,negative,7235,streets,workerid_0011
free_class_elicitation,1,19,height,Gary sees a jockey.,people,jockey,low,short,negative,28213,players,workerid_0012
free_class_elicitation,2,64,speed,Cameron is at a friend's house and sees their pet turtle come towards them.,pets,turtle,low,quick,positive,16414,turtles,workerid_0012
free_class_elicitation,3,76,temperature_h,Claire is spending her Saturday at a sauna.,places,sauna,high,cold,negative,11292,saunas,workerid_0012
free_class_elicitation,4,87,width,Kathleen is driving on a downtown street.,roads,downtown street,medium,wide,positive,8377,streets,workerid_0012
free_class_elicitation,5,85,weight,Charles is at a grocery store and picks up a watermelon.,fruit,watermelon,high,heavy,positive,10206,watermelons,workerid_0012
free_class_elicitation,6,41,price,Kim is at a decoration shop and looks at a statue made of platinum.,statues,platinum,high,cheap,negative,11977,metals,workerid_0012
free_class_elicitation,7,72,temperature,Michael takes the first bite of his ice cream.,food,ice cream,low,warm,positive,43099,ice cream treats,workerid_0012
free_class_elicitation,8,9,hardness,Greg is at a vegetable market and picks up a mushroom.,vegetables,mushroom,low,hard,positive,14691,mushrooms,workerid_0012
free_class_elicitation,9,43,price,Anthony is shopping for shoes and looks at a pair of sneakers.,shoes,sneakers,medium,cheap,negative,10478,sneakers,workerid_0012
free_class_elicitation,10,65,speed,Eric is taking a walk with a child.,people,child,medium,slow,negative,11776,children,workerid_0012
free_class_elicitation,11,36,loudness_n,Alicia is planning to move and reads about a nearby village.,places,village,low,quiet,negative,8318,villages,workerid_0012
free_class_elicitation,12,20,height,Mika is walking in a botanical garden and sees an alpine tree.,trees,alpine tree,medium,tall,positive,11684,alpine trees,workerid_0012
free_class_elicitation,13,30,loudness_n,Angela meets a friend at a conference center.,venue,conference center,medium,quiet,negative,14497,conference rooms,workerid_0012
free_class_elicitation,14,47,price,Kim is shopping for berries and looks at the price of raspberries.,berries,raspberries,medium,expensive,positive,15445,berries,workerid_0012
free_class_elicitation,15,3,darkness,John is at a bakery and looks at the color of a chocolate cake.,cakes,chocolate cake,low,dark,negative,16210,chocolate cakes,workerid_0012
free_class_elicitation,16,22,length_duration,Stephen is at a friend's house and notices the size of his pet snake.,pets,snake,high,long,positive,7880,snake,workerid_0012
free_class_elicitation,17,67,strength,Monica watches a teenager lift up a box.,people,teenager,medium,weak,negative,14018,people,workerid_0012
free_class_elicitation,18,55,size,Maya is at an aquarium and sees a herring.,fish,herring,low,small,negative,7384,herrings,workerid_0012
free_class_elicitation,19,23,length_duration,Melinda thinks about reading her favorite novel.,readings,novel,high,short,negative,7915,novels,workerid_0012
free_class_elicitation,20,8,darkness,Simon is at a zoo and notices the fur color of a tiger.,animals,tiger,medium,dark,negative,5898,tigers,workerid_0012
free_class_elicitation,21,26,length_duration,Natalia is looking at a highway on Google Maps.,roads,highway,high,long,positive,14276,routes,workerid_0012
free_class_elicitation,22,58,size,Gabriel is taking a walk and sees a great dane.,dogs,great dane,high,small,negative,17236,great danes,workerid_0012
free_class_elicitation,23,37,loudness_n,Laura is on the sidewalk and hears an electric car drive by.,vehicles,electric car,low,quiet,negative,11562,cars,workerid_0012
free_class_elicitation,24,66,speed_f,Stephanie is at an airport and sees a helicopter in the air.,aircrafts,helicopter,medium,fast,positive,10051,vehicles,workerid_0012
free_class_elicitation,25,50,price,Lucas is considering different places for dinner and looks at the menu of a Japanese restaurant.,restaurants,Japanese restaurant,high,cheap,negative,14853,restaurants,workerid_0012
free_class_elicitation,26,54,size,Lee is at a farmer's market and picks up a watermelon.,fruit,watermelon,high,small,negative,10972,watermelons,workerid_0012
free_class_elicitation,27,61,speed,Tom wants to cook dinner and considers using a crockpot.,cookware,crockpot,low,quick,positive,8442,cooking methods,workerid_0012
free_class_elicitation,28,34,loudness_n,Daniel is listening to a friend playing the harp.,instruments,harp,low,loud,positive,8616,instruments,workerid_0012
free_class_elicitation,29,89,width,Julia is walking on a boulevard.,roads,boulevard,high,wide,positive,7869,streets,workerid_0012
free_class_elicitation,30,2,darkness,William bought a can of blue paint and is testing it for the first time.,paint,blue paint,medium,dark,negative,11562,blue paints,workerid_0012
free_class_elicitation,31,57,size,Alexander is shopping at an appliances store and looks at an oven. ,appliances,oven,medium,big,positive,8705,ovens,workerid_0012
free_class_elicitation,32,25,length_duration,Veronica thinks about watching her favorite movie.,entertainment,movie,high,long,positive,8506,movies,workerid_0012
free_class_elicitation,33,13,hardness,Jasmine is at a hardware store and picks up a piece of cotton.,materials,cotton,low,soft,negative,25572,objects in-store,workerid_0012
free_class_elicitation,34,35,loudness,David is in a room with a baby.,people,baby,high,loud,positive,9804,people,workerid_0012
free_class_elicitation,35,44,price,Jennifer is shopping for spices and looks at salt.,spices,salt,low,expensive,positive,12645,spices,workerid_0012
free_class_elicitation,36,80,weight,Michelle is at an electronics store and picks up a laptop.,electronic devices,laptop,medium,heavy,positive,5463,laptops,workerid_0012
free_class_elicitation,1,37,loudness_n,Michael is on the sidewalk and hears an electric car drive by.,vehicles,electric car,low,quiet,negative,27160,cars,workerid_0013
free_class_elicitation,2,78,weight,Mika is at the zoo and watches a fish being lifted.,animals,fish,low,heavy,positive,18447,fish,workerid_0013
free_class_elicitation,3,30,loudness_n,Maya meets a friend at a party.,venue,party,high,noisy,positive,12752,places,workerid_0013
free_class_elicitation,4,2,darkness,Gary bought a can of blue paint and is testing it for the first time.,paint,blue paint,medium,dark,negative,32345,blue paints,workerid_0013
free_class_elicitation,5,57,size,Greg is shopping at an appliances store and looks at a toaster. ,appliances,toaster,low,small,negative,9120,toasters,workerid_0013
free_class_elicitation,6,18,height,Stephanie is looking at a sunflower.,flowers,sunflower,high,short,negative,12575,sunflowers,workerid_0013
free_class_elicitation,7,21,length_duration,Stephen is at a pet store and notices the length of a chihuahua.,dogs,chihuahua,low,short,negative,85071,chihuahuas,workerid_0013
free_class_elicitation,8,15,height,Angela is at a zoo and looks at a giraffe.,animals,giraffe,high,tall,positive,15959,animals,workerid_0013
free_class_elicitation,9,60,speed,Kathleen is at the zoo and watches a sloth move.,animals,sloth,low,fast,positive,144339,sloths,workerid_0013
free_class_elicitation,10,48,price,Eric is at the butchershop and looks at a piece of chicken.,meat,chicken,medium,cheap,negative,17407,chicken,workerid_0013
free_class_elicitation,11,14,hardness,Robert is in his bedroom and sits on a pillow.,furniture,pillow,low,hard,positive,12263,pillows,workerid_0013
free_class_elicitation,12,58,size,William is taking a walk and sees a poodle.,dogs,poodle,medium,big,positive,208398,poodles,workerid_0013
free_class_elicitation,13,9,hardness,Natalia is at a vegetable market and picks up a mushroom.,vegetables,mushroom,low,soft,negative,6992,mushrooms,workerid_0013
free_class_elicitation,14,49,price,Kim is at a liquor store and wants to buy a bottle of wine.,alcoholic drinks,bottle of wine,medium,expensive,positive,379948,wines,workerid_0013
free_class_elicitation,15,77,temperature_h,Laura is at a restaurant and takes a taste of a chocolate fondue. ,desserts,chocolate fondue,high,hot,positive,8663,foods,workerid_0013
free_class_elicitation,16,26,length_duration,John is looking at a highway on Google Maps.,roads,highway,high,short,negative,12136,ways,workerid_0013
free_class_elicitation,17,83,weight,Alexander is at a craft shop and picks up a piece of wool.,materials,wool,high,heavy,positive,9232,wood,workerid_0013
free_class_elicitation,18,88,width,Lee is standing at the bank of a creek.,waterways,creek,low,wide,positive,5888,creeks,workerid_0013
free_class_elicitation,19,47,price,Jasmine is shopping for berries and looks at the price of raspberries.,berries,raspberries,medium,expensive,positive,9111,berries,workerid_0013
free_class_elicitation,20,86,width,Simon is in a forest and sees a mouse den.,dens,mouse den,low,wide,positive,9684,dens,workerid_0013
free_class_elicitation,21,53,size,Claire is looking in an insect terrarium and sees a spider.,insects,spider,high,big,positive,5111,spiders,workerid_0013
free_class_elicitation,22,80,weight,Josh is at an electronics store and picks up a laptop.,electronic devices,laptop,medium,light,negative,5799,laptops,workerid_0013
free_class_elicitation,23,6,darkness,Gabriel is creating a flower bouquet and picks out a rose.,flowers,rose,medium,dark,negative,7167,roses,workerid_0013
free_class_elicitation,24,62,speed_f,Cameron sees a car on the highway.,vehicles,car,medium,fast,positive,5343,cars,workerid_0013
free_class_elicitation,25,90,width,Kim is attempting to move furniture through the patio door of her house.,doorways,patio door,medium,wide,positive,8759,doors,workerid_0013
free_class_elicitation,26,84,weight,Tom learns about the weight of a friend's new bike.,vehicles,bike,low,light,negative,7647,bikes,workerid_0013
free_class_elicitation,27,40,loudness,Melinda wants to play music and tries out an acoustic guitar.,guitars,acoustic guitar,medium,loud,positive,6352,guitars,workerid_0013
free_class_elicitation,28,34,loudness_n,Alicia is listening to a friend playing the horn.,instruments,horn,high,loud,positive,9912,horns,workerid_0013
free_class_elicitation,29,3,darkness,Daniel is at a bakery and looks at the color of a chocolate cake.,cakes,chocolate cake,low,dark,negative,10023,chocolate cakes,workerid_0013
free_class_elicitation,30,20,height,Monica is walking in a botanical garden and sees a bonsai tree.,trees,bonsai tree,low,tall,positive,10735,trees,workerid_0013
free_class_elicitation,31,72,temperature,Tanya takes the first bite of her salad.,food,salad,medium,cold,negative,11135,foods,workerid_0013
free_class_elicitation,32,76,temperature_h,Julia is spending her Saturday at a sauna.,places,sauna,high,cold,negative,11127,days,workerid_0013
free_class_elicitation,33,22,length_duration,Charles is at a friend's house and notices the size of his pet snake.,pets,snake,high,short,negative,7687,snakes,workerid_0013
free_class_elicitation,34,69,strength,Veronica is watching a wrestler lift weights.,athletes,wrestler,high,weak,negative,11816,wrestlers,workerid_0013
free_class_elicitation,35,45,price,Sophie wants to buy a bracelet and looks at one made of gold.,bracelets,gold,high,cheap,negative,9441,bracelets of gold,workerid_0013
free_class_elicitation,36,81,weight,Anthony is helping a friend move and picks up their chair.,furniture,chair,medium,light,negative,5240,chairs,workerid_0013
free_class_elicitation,1,77,temperature_h,Michael is at a restaurant and takes a taste of a smoothie. ,desserts,smoothie,low,hot,positive,17192,drinks,workerid_0014
free_class_elicitation,2,27,length_duration,Tom looks up information about an upcoming triathlon race.,races,triathlon race,high,short,negative,14392,triatlons,workerid_0014
free_class_elicitation,3,80,weight,John is at an electronics store and picks up a cell phone.,electronic devices,cell phone,low,light,negative,8984,cell phones,workerid_0014
free_class_elicitation,4,21,length_duration,Eric is at a pet store and notices the length of a dachshund.,dogs,dachshund,high,short,negative,9072,dachshunds,workerid_0014
free_class_elicitation,5,64,speed,Sophie is at a friend's house and sees their pet rabbit come towards them.,pets,rabbit,high,slow,negative,8976,rabbits,workerid_0014
free_class_elicitation,6,46,price,Michelle is clothing shopping and looks at a suit.,clothes,suit,high,expensive,positive,11720,clothing,workerid_0014
free_class_elicitation,7,16,height,Alicia is looking at a strip mall.,buildings,strip mall,low,short,negative,7871,strip malls,workerid_0014
free_class_elicitation,8,55,size,Lee is at an aquarium and sees a tuna.,fish,tuna,medium,small,negative,14386,tuna,workerid_0014
free_class_elicitation,9,89,width,Melinda is walking on a country lane.,roads,country lane,low,wide,positive,10127,country lanes,workerid_0014
free_class_elicitation,10,43,price,Anthony is shopping for shoes and looks at a pair of sandals.,shoes,sandals,low,expensive,positive,10199,shoes,workerid_0014
free_class_elicitation,11,58,size,Monica is taking a walk and sees a great dane.,dogs,great dane,high,small,negative,7607,great danes,workerid_0014
free_class_elicitation,12,26,length_duration,Simon is looking at a street on Google Maps.,roads,street,medium,short,negative,7856,streets,workerid_0014
free_class_elicitation,13,10,hardness,Stephanie is eating a marshmallow.,candies,marshmallow,low,soft,negative,30975,foods,workerid_0014
free_class_elicitation,14,65,speed,Kathleen is taking a walk with an adult.,people,adult,high,quick,positive,11232,adults,workerid_0014
free_class_elicitation,15,69,strength,Gary is watching a golfer lift weights.,athletes,golfer,low,weak,negative,9912,athletes,workerid_0014
free_class_elicitation,16,86,width,Julia is in a forest and sees a mouse den.,dens,mouse den,low,narrow,negative,11896,animal dens,workerid_0014
free_class_elicitation,17,30,loudness_n,Veronica meets a friend at a church.,venue,church,low,noisy,positive,8561,churches,workerid_0014
free_class_elicitation,18,24,length_duration,Tanya sees a friend driving a limousine.,vehicles,limousine,high,long,positive,8887,vehicles,workerid_0014
free_class_elicitation,19,53,size,Kim is looking in an insect terrarium and sees an ant.,insects,ant,low,small,negative,11432,insects,workerid_0014
free_class_elicitation,20,31,loudness_n,Robert is at a friend's place and hears his pet parrot.,pets,parrot,high,quiet,negative,9031,parrots,workerid_0014
free_class_elicitation,21,45,price,Natalia wants to buy a bracelet and looks at one made of gold.,bracelets,gold,high,expensive,positive,9984,bracelets,workerid_0014
free_class_elicitation,22,70,strength,Alexander is painting and tries a new wall paint.,paints,wall paint,medium,weak,negative,14681,wall paints,workerid_0014
free_class_elicitation,23,83,weight,William is at a craft shop and picks up a piece of silk.,materials,silk,low,heavy,positive,22040,fabrics,workerid_0014
free_class_elicitation,24,74,temperature,Charles steps outside on a day in fall.,seasons,fall,medium,warm,positive,9032,fall days,workerid_0014
free_class_elicitation,25,37,loudness_n,Angela is on the sidewalk and hears a car drive by.,vehicles,car,medium,quiet,negative,8040,cars,workerid_0014
free_class_elicitation,26,52,size,Greg is at the zoo and sees a monkey.,animals,monkey,medium,big,positive,6407,monkeys,workerid_0014
free_class_elicitation,27,23,length_duration,Gabriel thinks about reading his favorite novel.,readings,novel,high,long,positive,8089,novels,workerid_0014
free_class_elicitation,28,42,price,Maya is looking to rent a new place and checks out a house.,rentals,house,medium,expensive,positive,11143,rentals,workerid_0014
free_class_elicitation,29,90,width,Josh is attempting to move furniture through the patio door of his house.,doorways,patio door,medium,wide,positive,13072,pieces of furnature,workerid_0014
free_class_elicitation,30,66,speed_f,Daniel is at an airport and sees a helicopter in the air.,aircrafts,helicopter,medium,slow,negative,9088,flying crafts,workerid_0014
free_class_elicitation,31,7,darkness,Lucas takes a walk and notices the coat of a poodle.,dogs,poodle,high,light,positive,13215,poodles' coats,workerid_0014
free_class_elicitation,32,49,price,Cameron is at a liquor store and wants to buy a bottle of top-shelf liquor.,alcoholic drinks,bottle of top-shelf liquor,high,cheap,negative,12424,top-shelf liquor,workerid_0014
free_class_elicitation,33,81,weight,Stephen is helping a friend move and picks up their chair.,furniture,chair,medium,heavy,positive,12680,chairs,workerid_0014
free_class_elicitation,34,9,hardness,Mika is at a vegetable market and picks up a tomato.,vegetables,tomato,medium,soft,negative,7255,tomatoes,workerid_0014
free_class_elicitation,35,36,loudness_n,Laura is planning to move and reads about a nearby town.,places,town,medium,noisy,positive,10159,towns,workerid_0014
free_class_elicitation,36,48,price,Claire is at the butchershop and looks at a piece of pork.,meat,pork,low,expensive,positive,7488,meats,workerid_0014
free_class_elicitation,1,17,height,Charles sees an adult.,people,adult,high,short,negative,9286,friend,workerid_0015
free_class_elicitation,2,78,weight,Simon is at the zoo and watches a monkey being lifted.,animals,monkey,medium,heavy,positive,39113,says,workerid_0015
free_class_elicitation,3,27,length_duration,Lucas looks up information about an upcoming sprinting race.,races,sprinting race,low,long,positive,18507,sprinting race,workerid_0015
free_class_elicitation,4,47,price,Lee is shopping for berries and looks at the price of raspberries.,berries,raspberries,medium,expensive,positive,40486,berries ,workerid_0015
free_class_elicitation,5,21,length_duration,Stephen is at a pet store and notices the length of a bassett hound.,dogs,bassett hound,medium,short,negative,15092,stephen,workerid_0015
free_class_elicitation,6,59,speed,William is in the park and sees a jogger.,people,jogger,medium,slow,negative,9087,jogger,workerid_0015
free_class_elicitation,7,3,darkness,Maya is at a bakery and looks at the color of a cheesecake.,cakes,cheesecake,high,dark,negative,11679,cheesecake,workerid_0015
free_class_elicitation,8,72,temperature,Mika takes the first bite of her ice cream.,food,ice cream,low,warm,positive,8688,ice cream ,workerid_0015
free_class_elicitation,9,69,strength,Melinda is watching a wrestler lift weights.,athletes,wrestler,high,strong,positive,13447,melinda ,workerid_0015
free_class_elicitation,10,87,width,Laura is driving on a highway.,roads,highway,high,narrow,negative,13415,laura,workerid_0015
free_class_elicitation,11,71,strength,Tanya is examining the walls of a friend's new condo.,walls,condo,medium,weak,negative,4993,tanya,workerid_0015
free_class_elicitation,12,83,weight,Kim is at a craft shop and picks up a piece of cotton.,materials,cotton,medium,light,negative,6240,piece,workerid_0015
free_class_elicitation,13,37,loudness_n,Greg is on the sidewalk and hears a car drive by.,vehicles,car,medium,loud,positive,9998,sidewalk,workerid_0015
free_class_elicitation,14,23,length_duration,Kim thinks about reading her favorite story.,readings,story,medium,long,positive,40681,kim,workerid_0015
free_class_elicitation,15,55,size,Cameron is at an aquarium and sees a herring.,fish,herring,low,big,positive,11356,friend,workerid_0015
free_class_elicitation,16,30,loudness_n,David meets a friend at a church.,venue,church,low,noisy,positive,27278,meet a friend at a church,workerid_0015
free_class_elicitation,17,66,speed_f,Angela is at an airport and sees a helicopter in the air.,aircrafts,helicopter,medium,fast,positive,20871,air-roster,workerid_0015
free_class_elicitation,18,2,darkness,Jasmine bought a can of white paint and is testing it for the first time.,paint,white paint,high,light,positive,18440,white paint ,workerid_0015
free_class_elicitation,19,13,hardness,Kathleen is at a hardware store and picks up a piece of wood.,materials,wood,high,soft,negative,9057,kathleen ,workerid_0015
free_class_elicitation,20,34,loudness_n,Tom is listening to a friend playing the harp.,instruments,harp,low,loud,positive,6660,tom ,workerid_0015
free_class_elicitation,21,53,size,Sophie is looking in an insect terrarium and sees a spider.,insects,spider,high,big,positive,8730,sophie,workerid_0015
free_class_elicitation,22,8,darkness,Michelle is at a zoo and notices the fur color of a jaguar.,animals,jaguar,high,light,positive,8543,michelle,workerid_0015
free_class_elicitation,23,29,loudness,Josh is listening to a rock concert.,concerts,rock concert,high,loud,positive,12620,josh,workerid_0015
free_class_elicitation,24,80,weight,Veronica is at an electronics store and picks up a cell phone.,electronic devices,cell phone,low,light,negative,5584,veronica ,workerid_0015
free_class_elicitation,25,19,height,Stephanie sees a golfer.,people,golfer,medium,short,negative,6854,golfer,workerid_0015
free_class_elicitation,26,28,length_duration,Anthony is considering listening to his favorite podcast episode.,audios,podcast episode,medium,short,negative,9016,anthony,workerid_0015
free_class_elicitation,27,50,price,Alicia is considering different places for dinner and looks at the menu of a Chinese restaurant.,restaurants,Chinese restaurant,low,cheap,negative,4811,alica,workerid_0015
free_class_elicitation,28,36,loudness_n,Michael is planning to move and reads about a nearby city.,places,city,high,quiet,negative,7886,michael,workerid_0015
free_class_elicitation,29,61,speed,Claire wants to cook dinner and considers using a frying pan.,cookware,frying pan,medium,quick,positive,4894,claire ,workerid_0015
free_class_elicitation,30,45,price,Julia wants to buy a bracelet and looks at one made of plastic.,bracelets,plastic,low,cheap,negative,4926,julia ,workerid_0015
free_class_elicitation,31,57,size,John is shopping at an appliances store and looks at a toaster. ,appliances,toaster,low,small,negative,4872,john ,workerid_0015
free_class_elicitation,32,70,strength,Gabriel is painting and tries a new oil paint.,paints,oil paint,high,strong,positive,7299,gabriel ,workerid_0015
free_class_elicitation,33,88,width,Eric is standing at the bank of a creek.,waterways,creek,low,narrow,negative,3803,eric ,workerid_0015
free_class_elicitation,34,5,darkness,Robert is writing with a piece of chalk and notices the color of the script.,writing utensils,piece of chalk,high,dark,negative,4894,robert ,workerid_0015
free_class_elicitation,35,20,height,Jennifer is walking in a botanical garden and sees a bonsai tree.,trees,bonsai tree,low,tall,positive,5512,jennifer ,workerid_0015
free_class_elicitation,36,9,hardness,Daniel is at a vegetable market and picks up a mushroom.,vegetables,mushroom,low,soft,negative,6262,daniel ,workerid_0015
free_class_elicitation,1,31,loudness_n,Veronica is at a friend's place and hears her pet cat.,pets,cat,medium,loud,positive,9982,cats,workerid_0016
free_class_elicitation,2,29,loudness,Gabriel is listening to a rock concert.,concerts,rock concert,high,loud,positive,7091,music,workerid_0016
free_class_elicitation,3,54,size,Alicia is at a farmer's market and picks up a watermelon.,fruit,watermelon,high,big,positive,9246,watermelons,workerid_0016
free_class_elicitation,4,89,width,Sophie is walking on a country lane.,roads,country lane,low,wide,positive,17330,roads,workerid_0016
free_class_elicitation,5,69,strength,Cameron is watching a cyclist lift weights.,athletes,cyclist,medium,strong,positive,9394,cyclists,workerid_0016
free_class_elicitation,6,16,height,Simon is looking at an apartment building.,buildings,apartment building,medium,short,negative,9036,apartment buildings,workerid_0016
free_class_elicitation,7,57,size,Stephanie is shopping at an appliances store and looks at a toaster. ,appliances,toaster,low,big,positive,6575,toasters,workerid_0016
free_class_elicitation,8,48,price,David is at the butchershop and looks at a piece of chicken.,meat,chicken,medium,cheap,negative,5968,chicken,workerid_0016
free_class_elicitation,9,30,loudness_n,Daniel meets a friend at a church.,venue,church,low,noisy,positive,5592,churches,workerid_0016
free_class_elicitation,10,23,length_duration,John thinks about reading his favorite poem.,readings,poem,low,short,negative,3958,poems,workerid_0016
free_class_elicitation,11,63,speed_f,Michelle is travelling on her friend's new rowboat.,boats,rowboat,low,slow,negative,9545,rowboats,workerid_0016
free_class_elicitation,12,20,height,Jennifer is walking in a botanical garden and sees an alpine tree.,trees,alpine tree,medium,short,negative,5593,trees,workerid_0016
free_class_elicitation,13,71,strength,Maya is examining the walls of a friend's new tent.,walls,tent,low,weak,negative,4573,tents,workerid_0016
free_class_elicitation,14,22,length_duration,Lucas is at a friend's house and notices the size of his pet hamster.,pets,hamster,medium,long,positive,5370,hamsters,workerid_0016
free_class_elicitation,15,67,strength,Kathleen watches a child lift up a box.,people,child,low,weak,negative,5903,children,workerid_0016
free_class_elicitation,16,7,darkness,Tom takes a walk and notices the coat of a pitbull.,dogs,pitbull,low,dark,negative,5806,pitbulls,workerid_0016
free_class_elicitation,17,9,hardness,Mika is at a vegetable market and picks up a mushroom.,vegetables,mushroom,low,soft,negative,6350,mushrooms,workerid_0016
free_class_elicitation,18,74,temperature,Natalia steps outside on a day in fall.,seasons,fall,medium,warm,positive,7991,fall days,workerid_0016
free_class_elicitation,19,50,price,Alexander is considering different places for dinner and looks at the menu of a Korean restaurant.,restaurants,Korean restaurant,medium,expensive,positive,6030,restaurants,workerid_0016
free_class_elicitation,20,88,width,Jasmine is standing at the bank of a stream.,waterways,stream,medium,narrow,negative,4617,streams,workerid_0016
free_class_elicitation,21,6,darkness,Stephen is creating a flower bouquet and picks out a daisy.,flowers,daisy,high,light,positive,5754,bouquets,workerid_0016
free_class_elicitation,22,39,loudness_n,Melinda is at a lake and hears the sound of a powerboat.,boats,powerboat,high,quiet,negative,5934,powerboats,workerid_0016
free_class_elicitation,23,4,darkness,Josh steps outside during the day.,times of day,day,high,dark,negative,3916,days,workerid_0016
free_class_elicitation,24,27,length_duration,Anthony looks up information about an upcoming relay race.,races,relay race,medium,long,positive,4552,races,workerid_0016
free_class_elicitation,25,45,price,Angela wants to buy a bracelet and looks at one made of gold.,bracelets,gold,high,cheap,negative,9313,bracelets,workerid_0016
free_class_elicitation,26,82,weight,Charles is walking outside and picks up a feather.,objects,feather,low,heavy,positive,4797,feathers,workerid_0016
free_class_elicitation,27,24,length_duration,William sees a friend driving a smartcar.,vehicles,smartcar,low,long,positive,4468,smartcars,workerid_0016
free_class_elicitation,28,83,weight,Monica is at a craft shop and picks up a piece of wool.,materials,wool,high,light,negative,4619,wool,workerid_0016
free_class_elicitation,29,51,size,Laura is at a gardening store and looks at a tree.,plants,tree,high,small,negative,3850,trees,workerid_0016
free_class_elicitation,30,90,width,Lee is attempting to move furniture through the back door of his house.,doorways,back door,low,wide,positive,7584,doorways,workerid_0016
free_class_elicitation,31,60,speed,Robert is at the zoo and watches a cheetah move.,animals,cheetah,high,slow,negative,5018,cheetas,workerid_0016
free_class_elicitation,32,15,height,Kim is at a zoo and looks at a giraffe.,animals,giraffe,high,tall,positive,7478,animals,workerid_0016
free_class_elicitation,33,76,temperature_h,Eric is spending his Saturday at a sauna.,places,sauna,high,hot,positive,10879,rooms,workerid_0016
free_class_elicitation,34,62,speed_f,Michael sees a motorcycle on the highway.,vehicles,motorcycle,high,fast,positive,5837,vehicles,workerid_0016
free_class_elicitation,35,53,size,Julia is looking in an insect terrarium and sees a moth.,insects,moth,medium,small,negative,7035,insects,workerid_0016
free_class_elicitation,36,25,length_duration,Kim thinks about watching her favorite documentary.,entertainment,documentary,medium,short,negative,10628,documentaries,workerid_0016
free_class_elicitation,1,48,price,Jennifer is at the butchershop and looks at a piece of chicken.,meat,chicken,medium,expensive,positive,36194,chicken,workerid_0017
free_class_elicitation,2,84,weight,Josh learns about the weight of a friend's new truck.,vehicles,truck,high,light,negative,28608,truck,workerid_0017
free_class_elicitation,3,57,size,Lucas is shopping at an appliances store and looks at an oven. ,appliances,oven,medium,small,negative,20702,oven,workerid_0017
free_class_elicitation,4,74,temperature,Cameron steps outside on a day in winter.,seasons,winter,low,warm,positive,51567,outside,workerid_0017
free_class_elicitation,5,45,price,Gabriel wants to buy a bracelet and looks at one made of gold.,bracelets,gold,high,expensive,positive,21734,gold,workerid_0017
free_class_elicitation,6,39,loudness_n,Julia is at a lake and hears the sound of a rowboat.,boats,rowboat,low,loud,positive,28507,rowboat,workerid_0017
free_class_elicitation,7,26,length_duration,Mika is looking at a street on Google Maps.,roads,street,medium,short,negative,17364,street,workerid_0017
free_class_elicitation,8,53,size,Tom is looking in an insect terrarium and sees an ant.,insects,ant,low,big,positive,14615,ant,workerid_0017
free_class_elicitation,9,7,darkness,John takes a walk and notices the coat of a poodle.,dogs,poodle,high,dark,negative,23712,poodle,workerid_0017
free_class_elicitation,10,79,weight,Eric lifts up an adult.,people,adult,high,light,negative,17716,adult,workerid_0017
free_class_elicitation,11,54,size,Robert is at a farmer's market and picks up a peach.,fruit,peach,medium,big,positive,14682,peach,workerid_0017
free_class_elicitation,12,66,speed_f,Natalia is at an airport and sees a helicopter in the air.,aircrafts,helicopter,medium,fast,positive,25068,helicopter,workerid_0017
free_class_elicitation,13,16,height,Maya is looking at a skyscraper.,buildings,skyscraper,high,tall,positive,23075,skyscraper,workerid_0017
free_class_elicitation,14,56,size,Anthony sees his friend's new smartcar.,vehicles,smartcar,low,small,negative,15167,smartcar,workerid_0017
free_class_elicitation,15,28,length_duration,Kim is considering listening to her favorite podcast episode.,audios,podcast episode,medium,long,positive,14756,episode,workerid_0017
free_class_elicitation,16,4,darkness,David steps outside during the day.,times of day,day,high,light,positive,25532,outside,workerid_0017
free_class_elicitation,17,88,width,Stephen is standing at the bank of a stream.,waterways,stream,medium,narrow,negative,21635,bank,workerid_0017
free_class_elicitation,18,38,loudness,Charles is in a forest and hears a owl.,birds,owl,low,quiet,negative,13723,owl,workerid_0017
free_class_elicitation,19,25,length_duration,Monica thinks about watching her favorite movie.,entertainment,movie,high,long,positive,16601,movie,workerid_0017
free_class_elicitation,20,80,weight,Jasmine is at an electronics store and picks up a cell phone.,electronic devices,cell phone,low,heavy,positive,17821,cell phone,workerid_0017
free_class_elicitation,21,63,speed_f,Michelle is travelling on her friend's new rowboat.,boats,rowboat,low,slow,negative,25865,rowboat,workerid_0017
free_class_elicitation,22,76,temperature_h,Claire is spending her Saturday at a sauna.,places,sauna,high,cold,negative,34884,day,workerid_0017
free_class_elicitation,23,68,strength,William is hearing about the rain shower that is heading towards them.,storms,rain shower,low,strong,positive,15919,rain,workerid_0017
free_class_elicitation,24,14,hardness,Veronica is in her bedroom and sits on a blanket.,furniture,blanket,medium,soft,negative,12779,blanket,workerid_0017
free_class_elicitation,25,6,darkness,Sophie is creating a flower bouquet and picks out a daisy.,flowers,daisy,high,light,positive,26261,bouquet,workerid_0017
free_class_elicitation,26,50,price,Alexander is considering different places for dinner and looks at the menu of a Chinese restaurant.,restaurants,Chinese restaurant,low,cheap,negative,25566,chinese restaurant,workerid_0017
free_class_elicitation,27,71,strength,Kim is examining the walls of a friend's new mansion.,walls,mansion,high,strong,positive,13382,wall,workerid_0017
free_class_elicitation,28,44,price,Laura is shopping for spices and looks at salt.,spices,salt,low,cheap,negative,14290,salt,workerid_0017
free_class_elicitation,29,8,darkness,Kathleen is at a zoo and notices the fur color of a tiger.,animals,tiger,medium,dark,negative,11837,tiger,workerid_0017
free_class_elicitation,30,65,speed,Alicia is taking a walk with a child.,people,child,medium,quick,positive,13432,child,workerid_0017
free_class_elicitation,31,21,length_duration,Michael is at a pet store and notices the length of a chihuahua.,dogs,chihuahua,low,short,negative,18943,chihuahua,workerid_0017
free_class_elicitation,32,18,height,Stephanie is looking at a sunflower.,flowers,sunflower,high,short,negative,14798,sunflower,workerid_0017
free_class_elicitation,33,3,darkness,Melinda is at a bakery and looks at the color of a cheesecake.,cakes,cheesecake,high,dark,negative,15599,cheesecake,workerid_0017
free_class_elicitation,34,49,price,Lee is at a liquor store and wants to buy a bottle of wine.,alcoholic drinks,bottle of wine,medium,cheap,negative,6583,wine,workerid_0017
free_class_elicitation,35,11,hardness,Tanya steps onto the wood floor of a room.,floors,wood,medium,hard,positive,16700,wood,workerid_0017
free_class_elicitation,36,47,price,Daniel is shopping for berries and looks at the price of strawberries.,berries,strawberries,low,expensive,positive,17199,strawberries,workerid_0017
free_class_elicitation,1,39,loudness_n,Stephanie is at a lake and hears the sound of a rowboat.,boats,rowboat,low,loud,positive,8574,boats,workerid_0018
free_class_elicitation,2,6,darkness,Stephen is creating a flower bouquet and picks out a dahlia.,flowers,dahlia,low,light,positive,12607,flowers,workerid_0018
free_class_elicitation,3,62,speed_f,Angela sees a motorcycle on the highway.,vehicles,motorcycle,high,slow,negative,12232,vehicles,workerid_0018
free_class_elicitation,4,7,darkness,Julia takes a walk and notices the coat of a spaniel.,dogs,spaniel,medium,dark,negative,9895,dogs,workerid_0018
free_class_elicitation,5,65,speed,Gary is taking a walk with a child.,people,child,medium,quick,positive,10688,children,workerid_0018
free_class_elicitation,6,23,length_duration,David thinks about reading his favorite story.,readings,story,medium,long,positive,10744,stories,workerid_0018
free_class_elicitation,7,42,price,Jennifer is looking to rent a new place and checks out a house.,rentals,house,medium,expensive,positive,16527,rentals,workerid_0018
free_class_elicitation,8,2,darkness,Veronica bought a can of black paint and is testing it for the first time.,paint,black paint,low,light,positive,17754,paint colors,workerid_0018
free_class_elicitation,9,66,speed_f,Melinda is at an airport and sees a helicopter in the air.,aircrafts,helicopter,medium,slow,negative,12629,helicopters,workerid_0018
free_class_elicitation,10,64,speed,Lee is at a friend's house and sees their pet rabbit come towards them.,pets,rabbit,high,slow,negative,26863,animals,workerid_0018
free_class_elicitation,11,49,price,Daniel is at a liquor store and wants to buy a bottle of top-shelf liquor.,alcoholic drinks,bottle of top-shelf liquor,high,expensive,positive,10807,bottles of liquor,workerid_0018
free_class_elicitation,12,4,darkness,Eric steps outside during the night.,times of day,night,low,dark,negative,19008,times of day,workerid_0018
free_class_elicitation,13,56,size,William sees his friend's new smartcar.,vehicles,smartcar,low,small,negative,5904,cars,workerid_0018
free_class_elicitation,14,85,weight,Tom is at a grocery store and picks up a plum.,fruit,plum,low,heavy,positive,6111,fruits,workerid_0018
free_class_elicitation,15,88,width,Tanya is standing at the bank of a river.,waterways,river,high,wide,positive,9744,river banks,workerid_0018
free_class_elicitation,16,33,loudness_n,Kim is taking a walk in a park and hears the cry of a crow.,birds,crow,medium,quiet,negative,15680,sounds,workerid_0018
free_class_elicitation,17,83,weight,Laura is at a craft shop and picks up a piece of wool.,materials,wool,high,heavy,positive,22143,pieces of wool,workerid_0018
free_class_elicitation,18,26,length_duration,Cameron is looking at a highway on Google Maps.,roads,highway,high,long,positive,12673,highways,workerid_0018
free_class_elicitation,19,89,width,Maya is walking on a boulevard.,roads,boulevard,high,narrow,negative,6248,roads,workerid_0018
free_class_elicitation,20,17,height,John sees a teenager.,people,teenager,medium,tall,positive,10879,teenagers,workerid_0018
free_class_elicitation,21,84,weight,Michael learns about the weight of a friend's new truck.,vehicles,truck,high,heavy,positive,5752,trucks,workerid_0018
free_class_elicitation,22,30,loudness_n,Sophie meets a friend at a church.,venue,church,low,quiet,negative,18936,places,workerid_0018
free_class_elicitation,23,10,hardness,Claire is eating a marshmallow.,candies,marshmallow,low,hard,positive,7800,marshmallows,workerid_0018
free_class_elicitation,24,8,darkness,Lucas is at a zoo and notices the fur color of a tiger.,animals,tiger,medium,dark,negative,6672,tigers,workerid_0018
free_class_elicitation,25,55,size,Gabriel is at an aquarium and sees a tuna.,fish,tuna,medium,big,positive,7784,fish,workerid_0018
free_class_elicitation,26,70,strength,Alexander is painting and tries a new oil paint.,paints,oil paint,high,strong,positive,7703,paints,workerid_0018
free_class_elicitation,27,75,temperature_h,Alicia is in her kitchen and puts her hand in the oven.,locations,oven,high,cold,negative,13598,oven temperatures,workerid_0018
free_class_elicitation,28,16,height,Natalia is looking at an apartment building.,buildings,apartment building,medium,tall,positive,10472,apartment buildings,workerid_0018
free_class_elicitation,29,24,length_duration,Michelle sees a friend driving a smartcar.,vehicles,smartcar,low,short,negative,5167,cars,workerid_0018
free_class_elicitation,30,3,darkness,Simon is at a bakery and looks at the color of a fruit cake.,cakes,fruit cake,medium,dark,negative,6640,fruitcakes,workerid_0018
free_class_elicitation,31,37,loudness_n,Jasmine is on the sidewalk and hears an electric car drive by.,vehicles,electric car,low,loud,positive,4671,car,workerid_0018
free_class_elicitation,32,46,price,Josh is clothing shopping and looks at a suit.,clothes,suit,high,cheap,negative,7648,suits,workerid_0018
free_class_elicitation,33,20,height,Anthony is walking in a botanical garden and sees a bonsai tree.,trees,bonsai tree,low,short,negative,6552,trees,workerid_0018
