trial_type,trial_num,stim_id,degree,context_sentence,superordinate,np,np_expectations,adj,adj_polarity,rt,response,workerid
free_class_elicitation,1,40,loudness,Kim wants to play music and tries out an ukelele.,guitars,ukelele,low,loud,positive,20981,things in the room,workerid_0001
free_class_elicitation,2,37,loudness_n,Tom is on the sidewalk and hears a car drive by.,vehicles,car,medium,loud,positive,14690,cars on the street,workerid_0001
free_class_elicitation,3,42,price,Daniel is looking to rent a new place and checks out an apartment.,rentals,apartment,low,cheap,negative,14936,costs of living,workerid_0001
free_class_elicitation,4,72,temperature,Lee takes the first bite of his salad.,food,salad,medium,warm,positive,9375,salads,workerid_0001
free_class_elicitation,5,68,strength,Angela is hearing about the rain shower that is heading towards them.,storms,rain shower,low,strong,positive,13563,types of rain,workerid_0001
free_class_elicitation,6,31,loudness_n,Michael is at a friend's place and hears his pet cat.,pets,cat,medium,loud,positive,9607,cats,workerid_0001
free_class_elicitation,7,16,height,Charles is looking at an apartment building.,buildings,apartment building,medium,short,negative,9964,buildings,workerid_0001
free_class_elicitation,8,7,darkness,Josh takes a walk and notices the coat of a spaniel.,dogs,spaniel,medium,dark,negative,13824,coat of paints,workerid_0001
free_class_elicitation,9,24,length_duration,Lucas sees a friend driving a limousine.,vehicles,limousine,high,short,negative,7113,limousines,workerid_0001
free_class_elicitation,10,38,loudness,Simon is in a forest and hears a woodpecker.,birds,woodpecker,medium,quiet,negative,7875,woodpeckers,workerid_0001
free_class_elicitation,11,5,darkness,David is writing with a pen and notices the color of the script.,writing utensils,pen,medium,dark,negative,12971,scripts,workerid_0001
free_class_elicitation,12,18,height,Cameron is looking at a sunflower.,flowers,sunflower,high,tall,positive,6521,sunflowers,workerid_0001
free_class_elicitation,13,26,length_duration,Gary is looking at a street on Google Maps.,roads,street,medium,short,negative,6477,streets,workerid_0001
free_class_elicitation,14,1,darkness,Alexander is going for a walk and notices the color of a seagull.,birds,seagull,high,dark,negative,8981,seagulls,workerid_0001
free_class_elicitation,15,81,weight,Robert is helping a friend move and picks up their couch.,furniture,couch,high,heavy,positive,4396,couches,workerid_0001
free_class_elicitation,16,71,strength,Natalia is examining the walls of a friend's new tent.,walls,tent,low,strong,positive,8063,walls,workerid_0001
free_class_elicitation,17,11,hardness,Julia steps onto the carpet floor of a room.,floors,carpet,low,hard,positive,5779,carpets,workerid_0001
free_class_elicitation,18,46,price,Kim is clothing shopping and looks at a shirt.,clothes,shirt,low,expensive,positive,5526,shirts,workerid_0001
free_class_elicitation,19,64,speed,Gabriel is at a friend's house and sees their pet cat come towards them.,pets,cat,medium,quick,positive,5782,cats,workerid_0001
free_class_elicitation,20,51,size,Jennifer is at a gardening store and looks at a tree.,plants,tree,high,big,positive,5710,trees,workerid_0001
free_class_elicitation,21,8,darkness,Eric is at a zoo and notices the fur color of a panther.,animals,panther,low,dark,negative,6582,panthers,workerid_0001
free_class_elicitation,22,75,temperature_h,Monica is in her kitchen and puts her hand in the pantry.,locations,pantry,medium,warm,positive,9481,pantry,workerid_0001
free_class_elicitation,23,34,loudness_n,Stephen is listening to a friend playing the horn.,instruments,horn,high,quiet,negative,4859,horns,workerid_0001
free_class_elicitation,24,77,temperature_h,Laura is at a restaurant and takes a taste of a smoothie. ,desserts,smoothie,low,cold,negative,10995,drinks,workerid_0001
free_class_elicitation,25,36,loudness_n,Mika is planning to move and reads about a nearby village.,places,village,low,quiet,negative,9516,places,workerid_0001
free_class_elicitation,26,45,price,Anthony wants to buy a bracelet and looks at one made of metal.,bracelets,metal,medium,cheap,negative,6004,braclets,workerid_0001
free_class_elicitation,27,65,speed,Claire is taking a walk with an adult.,people,adult,high,quick,positive,9179,adults,workerid_0001
free_class_elicitation,28,23,length_duration,Stephanie thinks about reading her favorite story.,readings,story,medium,long,positive,4709,stories,workerid_0001
free_class_elicitation,29,35,loudness,Tanya is in a room with an adult.,people,adult,low,quiet,negative,7398,adults,workerid_0001
free_class_elicitation,30,4,darkness,William steps outside during the day.,times of day,day,high,light,positive,7149,days,workerid_0001
free_class_elicitation,31,76,temperature_h,John is spending his Saturday at a sauna.,places,sauna,high,cold,negative,5414,saunas,workerid_0001
free_class_elicitation,32,12,hardness,Jasmine picks up a melon.,fruit,melon,high,soft,negative,4211,melons,workerid_0001
free_class_elicitation,33,87,width,Alicia is driving on a highway.,roads,highway,high,narrow,negative,7588,highways,workerid_0001
free_class_elicitation,34,80,weight,Greg is at an electronics store and picks up a cell phone.,electronic devices,cell phone,low,light,negative,6416,cell phones,workerid_0001
free_class_elicitation,35,15,height,Maya is at a zoo and looks at a giraffe.,animals,giraffe,high,tall,positive,10963,animals,workerid_0001
free_class_elicitation,36,25,length_duration,Sophie thinks about watching her favorite sitcom.,entertainment,sitcom,low,long,positive,9844,sitcoms,workerid_0001
free_class_elicitation,1,88,width,Kim is standing at the bank of a creek.,waterways,creek,low,wide,positive,15794,creeks,workerid_0002
free_class_elicitation,2,44,price,Stephanie is shopping for spices and looks at garlic.,spices,garlic,medium,expensive,positive,21743,garlic,workerid_0002
free_class_elicitation,3,59,speed,Claire is in the park and sees a walker.,people,walker,low,slow,negative,19596,people on the street,workerid_0002
free_class_elicitation,4,45,price,William wants to buy a bracelet and looks at one made of gold.,bracelets,gold,high,expensive,positive,16952,bracelts,workerid_0002
free_class_elicitation,5,37,loudness_n,Julia is on the sidewalk and hears a tractor drive by.,vehicles,tractor,high,loud,positive,34129,tractors,workerid_0002
free_class_elicitation,6,10,hardness,Maya is eating a jolly rancher.,candies,jolly rancher,high,hard,positive,13569,candy,workerid_0002
free_class_elicitation,7,42,price,Melinda is looking to rent a new place and checks out a house.,rentals,house,medium,cheap,negative,17205,rentals,workerid_0002
free_class_elicitation,8,39,loudness_n,Monica is at a lake and hears the sound of a powerboat.,boats,powerboat,high,quiet,negative,21005,boats,workerid_0002
free_class_elicitation,9,55,size,Natalia is at an aquarium and sees a tuna.,fish,tuna,medium,big,positive,14866,fish,workerid_0002
free_class_elicitation,10,31,loudness_n,Michelle is at a friend's place and hears her pet cat.,pets,cat,medium,quiet,negative,20675,animals,workerid_0002
free_class_elicitation,11,22,length_duration,Lucas is at a friend's house and notices the size of his pet mouse.,pets,mouse,low,long,positive,13245,mice,workerid_0002
free_class_elicitation,12,62,speed_f,Jennifer sees a truck on the highway.,vehicles,truck,low,fast,positive,20099,vehicles on the highway,workerid_0002
free_class_elicitation,13,1,darkness,Sophie is going for a walk and notices the color of a seagull.,birds,seagull,high,dark,negative,16427,seagulls,workerid_0002
free_class_elicitation,14,40,loudness,John wants to play music and tries out an acoustic guitar.,guitars,acoustic guitar,medium,loud,positive,10309,music,workerid_0002
free_class_elicitation,15,17,height,Angela sees a child.,people,child,low,short,negative,13057,people,workerid_0002
free_class_elicitation,16,6,darkness,Gabriel is creating a flower bouquet and picks out a daisy.,flowers,daisy,high,light,positive,17162,flowers,workerid_0002
free_class_elicitation,17,83,weight,Simon is at a craft shop and picks up a piece of silk.,materials,silk,low,heavy,positive,15357,silk,workerid_0002
free_class_elicitation,18,47,price,Michael is shopping for berries and looks at the price of strawberries.,berries,strawberries,low,cheap,negative,15092,strawberries,workerid_0002
free_class_elicitation,19,84,weight,Veronica learns about the weight of a friend's new motorcycle.,vehicles,motorcycle,medium,light,negative,14908,motorcycles,workerid_0002
free_class_elicitation,20,11,hardness,Tom steps onto the wood floor of a room.,floors,wood,medium,soft,negative,12374,floors,workerid_0002
free_class_elicitation,21,18,height,Cameron is looking at a sunflower.,flowers,sunflower,high,tall,positive,10796,flowers,workerid_0002
free_class_elicitation,22,13,hardness,Alicia is at a hardware store and picks up a piece of cotton.,materials,cotton,low,hard,positive,25121,cotton,workerid_0002
free_class_elicitation,23,75,temperature_h,Daniel is in his kitchen and puts his hand in the pantry.,locations,pantry,medium,warm,positive,21607,pantries,workerid_0002
free_class_elicitation,24,26,length_duration,Jasmine is looking at an alley on Google Maps.,roads,alley,low,short,negative,15166,alleys,workerid_0002
free_class_elicitation,25,16,height,Stephen is looking at a skyscraper.,buildings,skyscraper,high,short,negative,16077,buildings,workerid_0002
free_class_elicitation,26,24,length_duration,Kim sees a friend driving a pick-up truck.,vehicles,pick-up truck,medium,short,negative,15853,trucks,workerid_0002
free_class_elicitation,27,65,speed,Tanya is taking a walk with an adult.,people,adult,high,slow,negative,20412,people walking,workerid_0002
free_class_elicitation,28,72,temperature,Laura takes the first bite of her ice cream.,food,ice cream,low,cold,negative,13196,food,workerid_0002
free_class_elicitation,29,77,temperature_h,Charles is at a restaurant and takes a taste of a smoothie. ,desserts,smoothie,low,hot,positive,15567,smoothies,workerid_0002
free_class_elicitation,30,14,hardness,Gary is in his bedroom and sits on a pillow.,furniture,pillow,low,soft,negative,12528,pillows,workerid_0002
free_class_elicitation,31,67,strength,Alexander watches an adult lift up a box.,people,adult,high,weak,negative,10801,people,workerid_0002
free_class_elicitation,32,23,length_duration,Kathleen thinks about reading her favorite novel.,readings,novel,high,long,positive,16036,novels,workerid_0002
free_class_elicitation,33,79,weight,Anthony lifts up an adult.,people,adult,high,light,negative,11928,adults,workerid_0002
free_class_elicitation,34,64,speed,Eric is at a friend's house and sees their pet cat come towards them.,pets,cat,medium,quick,positive,11392,animals,workerid_0002
free_class_elicitation,35,32,loudness_n,David is spending his Saturday night at a restaurant.,venues,restaurant,medium,quiet,negative,13667,restaurants,workerid_0002
free_class_elicitation,36,19,height,Lee sees a golfer.,people,golfer,medium,tall,positive,12325,people,workerid_0002
free_class_elicitation,1,37,loudness_n,Lee is on the sidewalk and hears a tractor drive by.,vehicles,tractor,high,loud,positive,11963,vehicles,workerid_0003
free_class_elicitation,2,10,hardness,Alexander is eating a piece of chocolate.,candies,piece of chocolate,medium,hard,positive,8135,chocolates,workerid_0003
free_class_elicitation,3,24,length_duration,Michael sees a friend driving a pick-up truck.,vehicles,pick-up truck,medium,short,negative,9953,pick-up trucks,workerid_0003
free_class_elicitation,4,90,width,Mika is attempting to move furniture through the front gate of her house.,doorways,front gate,high,narrow,negative,13463,gates,workerid_0003
free_class_elicitation,5,29,loudness,John is listening to a rap concert.,concerts,rap concert,medium,quiet,negative,5148,concerts,workerid_0003
free_class_elicitation,6,31,loudness_n,Simon is at a friend's place and hears his pet parrot.,pets,parrot,high,quiet,negative,9627,parrots,workerid_0003
free_class_elicitation,7,3,darkness,Monica is at a bakery and looks at the color of a cheesecake.,cakes,cheesecake,high,dark,negative,7289,cheesecakes,workerid_0003
free_class_elicitation,8,58,size,Charles is taking a walk and sees a chihuahua.,dogs,chihuahua,low,small,negative,4201,dogs,workerid_0003
free_class_elicitation,9,36,loudness_n,Melinda is planning to move and reads about a nearby town.,places,town,medium,noisy,positive,7663,towns,workerid_0003
free_class_elicitation,10,78,weight,Veronica is at the zoo and watches a monkey being lifted.,animals,monkey,medium,heavy,positive,8468,animals,workerid_0003
free_class_elicitation,11,1,darkness,Alicia is going for a walk and notices the color of a seagull.,birds,seagull,high,light,positive,6368,seagulls,workerid_0003
free_class_elicitation,12,25,length_duration,Stephanie thinks about watching her favorite documentary.,entertainment,documentary,medium,long,positive,21161,documentaries,workerid_0003
free_class_elicitation,13,2,darkness,Kathleen bought a can of blue paint and is testing it for the first time.,paint,blue paint,medium,dark,negative,32135,colors,workerid_0003
free_class_elicitation,14,88,width,Tom is standing at the bank of a river.,waterways,river,high,narrow,negative,13896,rivers,workerid_0003
free_class_elicitation,15,43,price,Claire is shopping for shoes and looks at a pair of sneakers.,shoes,sneakers,medium,cheap,negative,8372,shoes,workerid_0003
free_class_elicitation,16,83,weight,Sophie is at a craft shop and picks up a piece of wool.,materials,wool,high,heavy,positive,10115,pieces of wool,workerid_0003
free_class_elicitation,17,45,price,Angela wants to buy a bracelet and looks at one made of gold.,bracelets,gold,high,expensive,positive,19084,bracelets,workerid_0003
free_class_elicitation,18,26,length_duration,Robert is looking at an alley on Google Maps.,roads,alley,low,short,negative,5433,alleys,workerid_0003
free_class_elicitation,19,48,price,Daniel is at the butchershop and looks at a piece of pork.,meat,pork,low,expensive,positive,11759,pieces of pork,workerid_0003
free_class_elicitation,20,35,loudness,Natalia is in a room with an adult.,people,adult,low,quiet,negative,11691,people,workerid_0003
free_class_elicitation,21,33,loudness_n,Greg is taking a walk in a park and hears the cry of a rooster.,birds,rooster,high,loud,positive,14124,animals,workerid_0003
free_class_elicitation,22,38,loudness,Julia is in a forest and hears a owl.,birds,owl,low,loud,positive,299487,animals,workerid_0003
free_class_elicitation,23,32,loudness_n,Michelle is spending her Saturday night at a library.,venues,library,low,noisy,positive,5347,libraries,workerid_0003
free_class_elicitation,24,69,strength,Gabriel is watching a golfer lift weights.,athletes,golfer,low,weak,negative,5216,people,workerid_0003
free_class_elicitation,25,22,length_duration,Cameron is at a friend's house and notices the size of his pet hamster.,pets,hamster,medium,short,negative,6731,hamsters,workerid_0003
free_class_elicitation,26,54,size,Anthony is at a farmer's market and picks up a kumquat.,fruit,kumquat,low,small,negative,4995,kumquats,workerid_0003
free_class_elicitation,27,84,weight,Jasmine learns about the weight of a friend's new bike.,vehicles,bike,low,light,negative,3688,bikes,workerid_0003
free_class_elicitation,28,86,width,William is in a forest and sees a bear den.,dens,bear den,high,narrow,negative,3880,bear dens,workerid_0003
free_class_elicitation,29,62,speed_f,David sees a car on the highway.,vehicles,car,medium,slow,negative,3412,cars,workerid_0003
free_class_elicitation,30,59,speed,Lucas is in the park and sees a jogger.,people,jogger,medium,fast,positive,2506,joggers,workerid_0003
free_class_elicitation,31,5,darkness,Kim is writing with a pencil and notices the color of the script.,writing utensils,pencil,low,light,positive,8752,writing,workerid_0003
free_class_elicitation,32,40,loudness,Stephen wants to play music and tries out a bass guitar.,guitars,bass guitar,high,loud,positive,4352,guitars,workerid_0003
free_class_elicitation,33,18,height,Kim is looking at a sunflower.,flowers,sunflower,high,short,negative,4372,sunflowers,workerid_0003
free_class_elicitation,34,74,temperature,Gary steps outside on a day in winter.,seasons,winter,low,warm,positive,5167,days in winter,workerid_0003
free_class_elicitation,35,57,size,Laura is shopping at an appliances store and looks at an oven. ,appliances,oven,medium,big,positive,4360,ovens,workerid_0003
free_class_elicitation,36,23,length_duration,Tanya thinks about reading her favorite poem.,readings,poem,low,long,positive,3050,poems,workerid_0003
free_class_elicitation,1,16,height,Mika is looking at an apartment building.,buildings,apartment building,medium,tall,positive,15644,apartment buildings,workerid_0004
free_class_elicitation,2,27,length_duration,Lucas looks up information about an upcoming sprinting race.,races,sprinting race,low,long,positive,12415,races,workerid_0004
free_class_elicitation,3,7,darkness,Michael takes a walk and notices the coat of a poodle.,dogs,poodle,high,dark,negative,13247,dogs's coats,workerid_0004
free_class_elicitation,4,83,weight,Tanya is at a craft shop and picks up a piece of silk.,materials,silk,low,heavy,positive,22226,"pieces of silk, or fabric",workerid_0004
free_class_elicitation,5,5,darkness,Gabriel is writing with a pencil and notices the color of the script.,writing utensils,pencil,low,dark,negative,28784,pencil lead,workerid_0004
free_class_elicitation,6,32,loudness_n,Monica is spending her Saturday night at a concert.,venues,concert,high,noisy,positive,5424,concerts,workerid_0004
free_class_elicitation,7,66,speed_f,Laura is at an airport and sees a helicopter in the air.,aircrafts,helicopter,medium,fast,positive,15151,helicopters or planes,workerid_0004
free_class_elicitation,8,51,size,Kim is at a gardening store and looks at a bush.,plants,bush,medium,small,negative,5742,bushes,workerid_0004
free_class_elicitation,9,73,temperature_h,Michelle takes the first sip from a coffee.,drinks,coffee,high,cold,negative,7775,cups of coffee,workerid_0004
free_class_elicitation,10,9,hardness,Natalia is at a vegetable market and picks up a mushroom.,vegetables,mushroom,low,hard,positive,6911,mushrooms,workerid_0004
free_class_elicitation,11,8,darkness,Charles is at a zoo and notices the fur color of a panther.,animals,panther,low,light,positive,13215,panther's color,workerid_0004
free_class_elicitation,12,36,loudness_n,Maya is planning to move and reads about a nearby town.,places,town,medium,noisy,positive,7648,towns,workerid_0004
free_class_elicitation,13,52,size,Veronica is at the zoo and sees a monkey.,animals,monkey,medium,small,negative,3872,monkeys,workerid_0004
free_class_elicitation,14,17,height,Melinda sees an adult.,people,adult,high,tall,positive,4496,people,workerid_0004
free_class_elicitation,15,44,price,Stephen is shopping for spices and looks at saffron.,spices,saffron,high,cheap,negative,6944,spices,workerid_0004
free_class_elicitation,16,30,loudness_n,William meets a friend at a party.,venue,party,high,quiet,negative,6975,parties ,workerid_0004
free_class_elicitation,17,72,temperature,Cameron takes the first bite of his salad.,food,salad,medium,warm,positive,6310,salads,workerid_0004
free_class_elicitation,18,19,height,Gary sees a jockey.,people,jockey,low,short,negative,6286,people,workerid_0004
free_class_elicitation,19,64,speed,Kathleen is at a friend's house and sees their pet rabbit come towards them.,pets,rabbit,high,slow,negative,6719,rabbits,workerid_0004
free_class_elicitation,20,76,temperature_h,Simon is spending his Saturday at an ice rink.,places,ice rink,low,cold,negative,23599,places,workerid_0004
free_class_elicitation,21,6,darkness,Stephanie is creating a flower bouquet and picks out a dahlia.,flowers,dahlia,low,light,positive,14103,flowers,workerid_0004
free_class_elicitation,22,75,temperature_h,Lee is in his kitchen and puts his hand in the oven.,locations,oven,high,warm,positive,19145,parts of the kitchen,workerid_0004
free_class_elicitation,23,79,weight,Julia lifts up a baby.,people,baby,low,light,negative,4367,babies,workerid_0004
free_class_elicitation,24,45,price,Alexander wants to buy a bracelet and looks at one made of metal.,bracelets,metal,medium,cheap,negative,13551,bracelets ,workerid_0004
free_class_elicitation,25,62,speed_f,John sees a motorcycle on the highway.,vehicles,motorcycle,high,fast,positive,16991,motorcycles or cars,workerid_0004
free_class_elicitation,26,70,strength,David is painting and tries a new wall paint.,paints,wall paint,medium,weak,negative,12511,paints ,workerid_0004
free_class_elicitation,27,2,darkness,Angela bought a can of blue paint and is testing it for the first time.,paint,blue paint,medium,light,positive,10415,paints,workerid_0004
free_class_elicitation,28,10,hardness,Josh is eating a piece of chocolate.,candies,piece of chocolate,medium,hard,positive,10399,chocolates or candies,workerid_0004
free_class_elicitation,29,46,price,Alicia is clothing shopping and looks at a coat.,clothes,coat,medium,cheap,negative,5040,coats,workerid_0004
free_class_elicitation,30,58,size,Claire is taking a walk and sees a poodle.,dogs,poodle,medium,small,negative,4112,dogs,workerid_0004
free_class_elicitation,31,11,hardness,Kim steps onto the tile floor of a room.,floors,tile,high,hard,positive,9151,flooring,workerid_0004
free_class_elicitation,32,82,weight,Sophie is walking outside and picks up a rock.,objects,rock,high,light,negative,5215,rocks,workerid_0004
free_class_elicitation,33,38,loudness,Jennifer is in a forest and hears a owl.,birds,owl,low,quiet,negative,16462,parts of the forest,workerid_0004
free_class_elicitation,34,1,darkness,Jasmine is going for a walk and notices the color of a seagull.,birds,seagull,high,light,positive,8033,birds,workerid_0004
free_class_elicitation,35,67,strength,Tom watches a child lift up a box.,people,child,low,strong,positive,7015,children,workerid_0004
free_class_elicitation,36,63,speed_f,Anthony is travelling on his friend's new rowboat.,boats,rowboat,low,slow,negative,6543,boats ,workerid_0004
free_class_elicitation,1,72,temperature,Cameron takes the first bite of his salad.,food,salad,medium,cold,negative,7876,cold,workerid_0005
free_class_elicitation,2,86,width,Kim is in a forest and sees a mouse den.,dens,mouse den,low,wide,positive,4637,f,workerid_0005
free_class_elicitation,3,12,hardness,Angela picks up a melon.,fruit,melon,high,soft,negative,3558,c,workerid_0005
free_class_elicitation,4,85,weight,Veronica is at a grocery store and picks up a watermelon.,fruit,watermelon,high,heavy,positive,2998,ccz,workerid_0005
free_class_elicitation,5,3,darkness,Alexander is at a bakery and looks at the color of a cheesecake.,cakes,cheesecake,high,dark,negative,1863,dsf,workerid_0005
free_class_elicitation,6,16,height,Stephanie is looking at an apartment building.,buildings,apartment building,medium,short,negative,1319,dsfdsf,workerid_0005
free_class_elicitation,7,2,darkness,Tanya bought a can of black paint and is testing it for the first time.,paint,black paint,low,light,positive,1290,sdfdsf,workerid_0005
free_class_elicitation,8,34,loudness_n,Jennifer is listening to a friend playing the guitar.,instruments,guitar,medium,loud,positive,2083,dsf,workerid_0005
free_class_elicitation,9,71,strength,Monica is examining the walls of a friend's new mansion.,walls,mansion,high,strong,positive,1578,sdf,workerid_0005
free_class_elicitation,10,41,price,William is at a decoration shop and looks at a statue made of bronze.,statues,bronze,medium,expensive,positive,4007,"It's expensive.""",workerid_0005
free_class_elicitation,11,59,speed,Claire is in the park and sees a jogger.,people,jogger,medium,slow,negative,4122,"They're slow.""",workerid_0005
free_class_elicitation,12,29,loudness,Melinda is listening to a choral concert.,concerts,choral concert,low,quiet,negative,4849,"It's quiet.""",workerid_0005
free_class_elicitation,13,90,width,Lucas is attempting to move furniture through the back door of his house.,doorways,back door,low,narrow,negative,5133,It's narrow.,workerid_0005
free_class_elicitation,14,36,loudness_n,Michelle is planning to move and reads about a nearby village.,places,village,low,noisy,positive,6566,It's noisy there,workerid_0005
free_class_elicitation,15,35,loudness,Greg is in a room with an adult.,people,adult,low,quiet,negative,4298,They're quie,workerid_0005
free_class_elicitation,16,9,hardness,Laura is at a vegetable market and picks up a cucumber.,vegetables,cucumber,high,soft,negative,4101,It's soft,workerid_0005
free_class_elicitation,17,75,temperature_h,Josh is in his kitchen and puts his hand in the pantry.,locations,pantry,medium,cold,negative,1767,It's soft,workerid_0005
free_class_elicitation,18,46,price,Anthony is clothing shopping and looks at a coat.,clothes,coat,medium,cheap,negative,919,It's soft,workerid_0005
free_class_elicitation,19,51,size,Julia is at a gardening store and looks at a flower.,plants,flower,low,small,negative,1552,It's soft,workerid_0005
free_class_elicitation,20,60,speed,Kathleen is at the zoo and watches a cheetah move.,animals,cheetah,high,fast,positive,1359,It's soft,workerid_0005
free_class_elicitation,21,13,hardness,Stephen is at a hardware store and picks up a piece of wood.,materials,wood,high,hard,positive,1076,It's soft,workerid_0005
free_class_elicitation,22,7,darkness,David takes a walk and notices the coat of a poodle.,dogs,poodle,high,dark,negative,1146,It's soft,workerid_0005
free_class_elicitation,23,58,size,Michael is taking a walk and sees a great dane.,dogs,great dane,high,big,positive,1102,It's soft,workerid_0005
free_class_elicitation,24,69,strength,Gabriel is watching a golfer lift weights.,athletes,golfer,low,weak,negative,1169,It's soft,workerid_0005
free_class_elicitation,25,20,height,Lee is walking in a botanical garden and sees a redwood tree.,trees,redwood tree,high,short,negative,1006,It's soft,workerid_0005
free_class_elicitation,26,14,hardness,Daniel is in his bedroom and sits on a blanket.,furniture,blanket,medium,hard,positive,1231,It's soft,workerid_0005
free_class_elicitation,27,61,speed,Maya wants to cook dinner and considers using a crockpot.,cookware,crockpot,low,quick,positive,11903,It's soft,workerid_0005
free_class_elicitation,28,73,temperature_h,Sophie takes the first sip from a coffee.,drinks,coffee,high,hot,positive,1125,It's soft,workerid_0005
free_class_elicitation,29,33,loudness_n,Robert is taking a walk in a park and hears the cry of a finch.,birds,finch,low,quiet,negative,1081,It's soft,workerid_0005
free_class_elicitation,30,65,speed,Kim is taking a walk with a elderly person.,people,elderly person,low,quick,positive,1199,It's soft,workerid_0005
free_class_elicitation,31,78,weight,Jasmine is at the zoo and watches a monkey being lifted.,animals,monkey,medium,heavy,positive,1416,It's soft,workerid_0005
free_class_elicitation,32,5,darkness,Gary is writing with a piece of chalk and notices the color of the script.,writing utensils,piece of chalk,high,dark,negative,999,It's soft,workerid_0005
free_class_elicitation,33,45,price,Eric wants to buy a bracelet and looks at one made of plastic.,bracelets,plastic,low,expensive,positive,974,It's soft,workerid_0005
free_class_elicitation,34,79,weight,Tom lifts up a kid.,people,kid,medium,heavy,positive,943,It's soft,workerid_0005
free_class_elicitation,35,53,size,Natalia is looking in an insect terrarium and sees a moth.,insects,moth,medium,small,negative,894,It's soft,workerid_0005
free_class_elicitation,36,80,weight,Mika is at an electronics store and picks up a laptop.,electronic devices,laptop,medium,heavy,positive,936,It's soft,workerid_0005
free_class_elicitation,1,79,weight,Natalia lifts up a baby.,people,baby,low,heavy,positive,12302,small things,workerid_0006
free_class_elicitation,2,24,length_duration,Kathleen sees a friend driving a pick-up truck.,vehicles,pick-up truck,medium,long,positive,9910,pick up trucks,workerid_0006
free_class_elicitation,3,16,height,Tom is looking at an apartment building.,buildings,apartment building,medium,tall,positive,7624,apt buildings,workerid_0006
free_class_elicitation,4,61,speed,Alicia wants to cook dinner and considers using a crockpot.,cookware,crockpot,low,slow,negative,4610,unsure,workerid_0006
free_class_elicitation,5,78,weight,John is at the zoo and watches a monkey being lifted.,animals,monkey,medium,heavy,positive,1562,unsure,workerid_0006
free_class_elicitation,6,9,hardness,Charles is at a vegetable market and picks up a cucumber.,vegetables,cucumber,high,hard,positive,1312,unsure,workerid_0006
free_class_elicitation,7,71,strength,Daniel is examining the walls of a friend's new condo.,walls,condo,medium,weak,negative,2037,unsure,workerid_0006
free_class_elicitation,8,62,speed_f,David sees a truck on the highway.,vehicles,truck,low,slow,negative,925,unsure,workerid_0006
free_class_elicitation,9,1,darkness,Simon is going for a walk and notices the color of a parrot.,birds,parrot,medium,dark,negative,1217,unsure,workerid_0006
free_class_elicitation,10,47,price,Robert is shopping for berries and looks at the price of boysenberries.,berries,boysenberries,high,expensive,positive,1039,unsure,workerid_0006
free_class_elicitation,11,89,width,Veronica is walking on a country lane.,roads,country lane,low,wide,positive,1198,unsure,workerid_0006
free_class_elicitation,12,63,speed_f,Anthony is travelling on his friend's new speedboat.,boats,speedboat,high,slow,negative,1211,unsure,workerid_0006
free_class_elicitation,13,60,speed,Michael is at the zoo and watches a cheetah move.,animals,cheetah,high,fast,positive,1485,unsure,workerid_0006
free_class_elicitation,14,23,length_duration,Jennifer thinks about reading her favorite novel.,readings,novel,high,short,negative,1413,unsure,workerid_0006
free_class_elicitation,15,76,temperature_h,Laura is spending her Saturday at an ice rink.,places,ice rink,low,cold,negative,1424,unsure,workerid_0006
free_class_elicitation,16,57,size,Gary is shopping at an appliances store and looks at a toaster. ,appliances,toaster,low,small,negative,2500,unsure,workerid_0006
free_class_elicitation,17,64,speed,Angela is at a friend's house and sees their pet rabbit come towards them.,pets,rabbit,high,slow,negative,1937,unsure,workerid_0006
free_class_elicitation,18,54,size,Lee is at a farmer's market and picks up a peach.,fruit,peach,medium,small,negative,1671,unsure,workerid_0006
free_class_elicitation,19,4,darkness,Gabriel steps outside during the day.,times of day,day,high,dark,negative,1630,unsure,workerid_0006
free_class_elicitation,20,73,temperature_h,Lucas takes the first sip from a juice.,drinks,juice,medium,cold,negative,1534,unsure,workerid_0006
free_class_elicitation,21,86,width,Kim is in a forest and sees a bear den.,dens,bear den,high,narrow,negative,1146,unsure,workerid_0006
free_class_elicitation,22,39,loudness_n,Michelle is at a lake and hears the sound of a sailboat.,boats,sailboat,medium,loud,positive,1706,unsure,workerid_0006
free_class_elicitation,23,83,weight,Melinda is at a craft shop and picks up a piece of cotton.,materials,cotton,medium,heavy,positive,1541,unsure,workerid_0006
free_class_elicitation,24,30,loudness_n,Sophie meets a friend at a church.,venue,church,low,noisy,positive,1368,unsure,workerid_0006
free_class_elicitation,25,13,hardness,Claire is at a hardware store and picks up a piece of cotton.,materials,cotton,low,hard,positive,1494,unsure,workerid_0006
free_class_elicitation,26,37,loudness_n,Julia is on the sidewalk and hears a car drive by.,vehicles,car,medium,quiet,negative,1577,unsure,workerid_0006
free_class_elicitation,27,68,strength,Monica is hearing about the rain shower that is heading towards them.,storms,rain shower,low,weak,negative,1347,unsure,workerid_0006
free_class_elicitation,28,8,darkness,Josh is at a zoo and notices the fur color of a panther.,animals,panther,low,dark,negative,1691,unsure,workerid_0006
free_class_elicitation,29,75,temperature_h,Mika is in her kitchen and puts her hand in the oven.,locations,oven,high,warm,positive,1690,unsure,workerid_0006
free_class_elicitation,30,81,weight,Kim is helping a friend move and picks up their chair.,furniture,chair,medium,light,negative,2305,unsure,workerid_0006
free_class_elicitation,31,90,width,William is attempting to move furniture through the back door of his house.,doorways,back door,low,wide,positive,1723,unsure,workerid_0006
free_class_elicitation,32,20,height,Alexander is walking in a botanical garden and sees a redwood tree.,trees,redwood tree,high,tall,positive,1820,unsure,workerid_0006
free_class_elicitation,33,87,width,Stephanie is driving on a downtown street.,roads,downtown street,medium,wide,positive,1160,unsure,workerid_0006
free_class_elicitation,34,49,price,Greg is at a liquor store and wants to buy a bottle of top-shelf liquor.,alcoholic drinks,bottle of top-shelf liquor,high,cheap,negative,1130,unsure,workerid_0006
free_class_elicitation,35,27,length_duration,Stephen looks up information about an upcoming sprinting race.,races,sprinting race,low,long,positive,1096,unsure,workerid_0006
free_class_elicitation,36,32,loudness_n,Cameron is spending his Saturday night at a concert.,venues,concert,high,noisy,positive,1268,unsure,workerid_0006
free_class_elicitation,1,69,strength,Michael is watching a cyclist lift weights.,athletes,cyclist,medium,weak,negative,8149,muscles,workerid_0007
free_class_elicitation,2,32,loudness_n,Lee is spending his Saturday night at a restaurant.,venues,restaurant,medium,noisy,positive,5847,restaurants,workerid_0007
free_class_elicitation,3,63,speed_f,Cameron is travelling on his friend's new speedboat.,boats,speedboat,high,slow,negative,5816,boats,workerid_0007
free_class_elicitation,4,34,loudness_n,Simon is listening to a friend playing the harp.,instruments,harp,low,quiet,negative,12905,harps,workerid_0007
free_class_elicitation,5,56,size,Monica sees her friend's new truck.,vehicles,truck,high,big,positive,3766,truck,workerid_0007
free_class_elicitation,6,73,temperature_h,Stephen takes the first sip from a coffee.,drinks,coffee,high,cold,negative,5788,coffees,workerid_0007
free_class_elicitation,7,61,speed,Mika wants to cook dinner and considers using a frying pan.,cookware,frying pan,medium,quick,positive,9337,dinners,workerid_0007
free_class_elicitation,8,38,loudness,Gary is in a forest and hears a owl.,birds,owl,low,quiet,negative,4531,owls,workerid_0007
free_class_elicitation,9,46,price,Julia is clothing shopping and looks at a suit.,clothes,suit,high,expensive,positive,4801,suits,workerid_0007
free_class_elicitation,10,67,strength,Natalia watches a teenager lift up a box.,people,teenager,medium,weak,negative,7025,teenagers,workerid_0007
free_class_elicitation,11,89,width,Alicia is walking on a street.,roads,street,medium,narrow,negative,3084,streets,workerid_0007
free_class_elicitation,12,1,darkness,Stephanie is going for a walk and notices the color of a crow.,birds,crow,low,light,positive,3958,crows,workerid_0007
free_class_elicitation,13,80,weight,Alexander is at an electronics store and picks up a printer.,electronic devices,printer,high,light,negative,4084,printers,workerid_0007
free_class_elicitation,14,47,price,Kim is shopping for berries and looks at the price of strawberries.,berries,strawberries,low,cheap,negative,5673,strawberries,workerid_0007
free_class_elicitation,15,21,length_duration,Greg is at a pet store and notices the length of a bassett hound.,dogs,bassett hound,medium,short,negative,3553,dogs,workerid_0007
free_class_elicitation,16,58,size,Jasmine is taking a walk and sees a poodle.,dogs,poodle,medium,big,positive,4365,dogs,workerid_0007
free_class_elicitation,17,12,hardness,Charles picks up a melon.,fruit,melon,high,hard,positive,3673,melons,workerid_0007
free_class_elicitation,18,7,darkness,Michelle takes a walk and notices the coat of a spaniel.,dogs,spaniel,medium,light,positive,10409,coats,workerid_0007
free_class_elicitation,19,52,size,Anthony is at the zoo and sees a mouse.,animals,mouse,low,big,positive,4228,mice,workerid_0007
free_class_elicitation,20,19,height,Laura sees a jockey.,people,jockey,low,short,negative,3982,jockeys,workerid_0007
free_class_elicitation,21,11,hardness,Angela steps onto the wood floor of a room.,floors,wood,medium,hard,positive,3492,floors,workerid_0007
free_class_elicitation,22,16,height,Claire is looking at a strip mall.,buildings,strip mall,low,tall,positive,8389,malls,workerid_0007
free_class_elicitation,23,37,loudness_n,Josh is on the sidewalk and hears a tractor drive by.,vehicles,tractor,high,quiet,negative,3931,tractors,workerid_0007
free_class_elicitation,24,51,size,Gabriel is at a gardening store and looks at a flower.,plants,flower,low,big,positive,3328,flowers,workerid_0007
free_class_elicitation,25,86,width,Robert is in a forest and sees a bear den.,dens,bear den,high,wide,positive,3316,dens,workerid_0007
free_class_elicitation,26,85,weight,Jennifer is at a grocery store and picks up a plum.,fruit,plum,low,heavy,positive,4356,plums,workerid_0007
free_class_elicitation,27,27,length_duration,Veronica looks up information about an upcoming relay race.,races,relay race,medium,long,positive,2910,races,workerid_0007
free_class_elicitation,28,57,size,Lucas is shopping at an appliances store and looks at an oven. ,appliances,oven,medium,small,negative,4703,ovens,workerid_0007
free_class_elicitation,29,81,weight,Eric is helping a friend move and picks up their couch.,furniture,couch,high,heavy,positive,4487,furniture,workerid_0007
free_class_elicitation,30,4,darkness,Kim steps outside during the day.,times of day,day,high,light,positive,4591,days,workerid_0007
free_class_elicitation,31,72,temperature,Melinda takes the first bite of her soup.,food,soup,high,cold,negative,4181,soups,workerid_0007
free_class_elicitation,32,17,height,Maya sees a child.,people,child,low,short,negative,5589,children,workerid_0007
free_class_elicitation,33,90,width,Tom is attempting to move furniture through the front gate of his house.,doorways,front gate,high,narrow,negative,2818,gates,workerid_0007
free_class_elicitation,34,36,loudness_n,Daniel is planning to move and reads about a nearby village.,places,village,low,quiet,negative,4536,villages,workerid_0007
free_class_elicitation,35,29,loudness,Tanya is listening to a rap concert.,concerts,rap concert,medium,quiet,negative,5836,concerts,workerid_0007
free_class_elicitation,36,79,weight,William lifts up a baby.,people,baby,low,heavy,positive,3151,babies,workerid_0007
free_class_elicitation,1,6,darkness,Alicia is creating a flower bouquet and picks out a dahlia.,flowers,dahlia,low,dark,negative,25733,flowers,workerid_0008
free_class_elicitation,2,80,weight,Natalia is at an electronics store and picks up a cell phone.,electronic devices,cell phone,low,light,negative,42430,cell phones,workerid_0008
free_class_elicitation,3,42,price,Monica is looking to rent a new place and checks out an apartment.,rentals,apartment,low,cheap,negative,18305,apartments,workerid_0008
free_class_elicitation,4,10,hardness,Melinda is eating a marshmallow.,candies,marshmallow,low,soft,negative,87455,candies,workerid_0008
free_class_elicitation,5,35,loudness,Michael is in a room with an adult.,people,adult,low,quiet,negative,21266,adults,workerid_0008
free_class_elicitation,6,73,temperature_h,Gary takes the first sip from a milkshake.,drinks,milkshake,low,cold,negative,15731,drinks,workerid_0008
free_class_elicitation,7,51,size,Jasmine is at a gardening store and looks at a flower.,plants,flower,low,big,positive,14604,flowers,workerid_0008
free_class_elicitation,8,77,temperature_h,Robert is at a restaurant and takes a taste of a smoothie. ,desserts,smoothie,low,hot,positive,12600,smoothies,workerid_0008
free_class_elicitation,9,70,strength,Tom is painting and tries a new watercolor.,paints,watercolor,low,strong,positive,21429,watercolors,workerid_0008
free_class_elicitation,10,4,darkness,Lee steps outside during the night.,times of day,night,low,light,positive,26375,streets,workerid_0008
free_class_elicitation,11,17,height,Kathleen sees a child.,people,child,low,tall,positive,11200,children,workerid_0008
free_class_elicitation,12,82,weight,Greg is walking outside and picks up a feather.,objects,feather,low,heavy,positive,7337,feathers,workerid_0008
free_class_elicitation,13,2,darkness,Tanya bought a can of blue paint and is testing it for the first time.,paint,blue paint,medium,dark,negative,16506,blue colors,workerid_0008
free_class_elicitation,14,81,weight,Claire is helping a friend move and picks up their chair.,furniture,chair,medium,light,negative,8249,chairs,workerid_0008
free_class_elicitation,15,45,price,Laura wants to buy a bracelet and looks at one made of metal.,bracelets,metal,medium,cheap,negative,18636,metals,workerid_0008
free_class_elicitation,16,28,length_duration,William is considering listening to his favorite podcast episode.,audios,podcast episode,medium,short,negative,13218,podcasts,workerid_0008
free_class_elicitation,17,20,height,Maya is walking in a botanical garden and sees an alpine tree.,trees,alpine tree,medium,short,negative,9953,trees,workerid_0008
free_class_elicitation,18,61,speed,Gabriel wants to cook dinner and considers using a frying pan.,cookware,frying pan,medium,slow,negative,15762,dinners,workerid_0008
free_class_elicitation,19,69,strength,Stephen is watching a cyclist lift weights.,athletes,cyclist,medium,strong,positive,11846,cyclists,workerid_0008
free_class_elicitation,20,43,price,Michelle is shopping for shoes and looks at a pair of sneakers.,shoes,sneakers,medium,expensive,positive,7633,sneakers,workerid_0008
free_class_elicitation,21,71,strength,Cameron is examining the walls of a friend's new condo.,walls,condo,medium,strong,positive,16594,walls,workerid_0008
free_class_elicitation,22,21,length_duration,David is at a pet store and notices the length of a bassett hound.,dogs,bassett hound,medium,long,positive,16598,bassett hounds,workerid_0008
free_class_elicitation,23,15,height,Stephanie is at a zoo and looks at a monkey.,animals,monkey,medium,tall,positive,10869,monkeys,workerid_0008
free_class_elicitation,24,25,length_duration,Daniel thinks about watching his favorite documentary.,entertainment,documentary,medium,long,positive,9329,documentaries,workerid_0008
free_class_elicitation,25,11,hardness,Josh steps onto the tile floor of a room.,floors,tile,high,soft,negative,13756,tile floors,workerid_0008
free_class_elicitation,26,29,loudness,Simon is listening to a rock concert.,concerts,rock concert,high,quiet,negative,13728,concerts,workerid_0008
free_class_elicitation,27,68,strength,Mika is hearing about the hurricane that is heading towards them.,storms,hurricane,high,weak,negative,8380,hurricanes,workerid_0008
free_class_elicitation,28,66,speed_f,Veronica is at an airport and sees a plane in the air.,aircrafts,plane,high,slow,negative,12477,planes,workerid_0008
free_class_elicitation,29,83,weight,Lucas is at a craft shop and picks up a piece of wool.,materials,wool,high,light,negative,21749,types of wool,workerid_0008
free_class_elicitation,30,16,height,Alexander is looking at a skyscraper.,buildings,skyscraper,high,short,negative,12607,skyscrapers,workerid_0008
free_class_elicitation,31,67,strength,Anthony watches an adult lift up a box.,people,adult,high,strong,positive,15430,adults,workerid_0008
free_class_elicitation,32,22,length_duration,Eric is at a friend's house and notices the size of his pet snake.,pets,snake,high,long,positive,9485,snakes,workerid_0008
free_class_elicitation,33,85,weight,Jennifer is at a grocery store and picks up a watermelon.,fruit,watermelon,high,heavy,positive,7887,watermelons,workerid_0008
free_class_elicitation,34,31,loudness_n,Kim is at a friend's place and hears her pet parrot.,pets,parrot,high,loud,positive,25228,birds,workerid_0008
free_class_elicitation,35,7,darkness,Charles takes a walk and notices the coat of a poodle.,dogs,poodle,high,light,positive,15353,poodles,workerid_0008
free_class_elicitation,36,56,size,Sophie sees her friend's new truck.,vehicles,truck,high,big,positive,7481,trucks,workerid_0008
free_class_elicitation,1,40,loudness,Lee wants to play music and tries out a bass guitar.,guitars,bass guitar,high,quiet,negative,8798,instruments,workerid_0009
free_class_elicitation,2,18,height,Jasmine is looking at a tulip.,flowers,tulip,medium,tall,positive,7304,flowers,workerid_0009
free_class_elicitation,3,74,temperature,Josh steps outside on a day in winter.,seasons,winter,low,cold,negative,4808,days,workerid_0009
free_class_elicitation,4,16,height,Jennifer is looking at a skyscraper.,buildings,skyscraper,high,short,negative,12001,buildings,workerid_0009
free_class_elicitation,5,14,hardness,John is in his bedroom and sits on a pillow.,furniture,pillow,low,hard,positive,11913,pillows,workerid_0009
free_class_elicitation,6,19,height,William sees a golfer.,people,golfer,medium,short,negative,7468,golfers,workerid_0009
free_class_elicitation,7,60,speed,Simon is at the zoo and watches a cheetah move.,animals,cheetah,high,slow,negative,11857,cheetahs,workerid_0009
free_class_elicitation,8,67,strength,Mika watches a child lift up a box.,people,child,low,weak,negative,14632,humans,workerid_0009
free_class_elicitation,9,15,height,Monica is at a zoo and looks at a penguin.,animals,penguin,low,tall,positive,8196,animals,workerid_0009
free_class_elicitation,10,87,width,Tom is driving on a highway.,roads,highway,high,narrow,negative,9193,highways,workerid_0009
free_class_elicitation,11,41,price,Laura is at a decoration shop and looks at a statue made of platinum.,statues,platinum,high,cheap,negative,15321,platinum statues,workerid_0009
free_class_elicitation,12,7,darkness,Tanya takes a walk and notices the coat of a spaniel.,dogs,spaniel,medium,light,positive,19322,dogs,workerid_0009
free_class_elicitation,13,10,hardness,Eric is eating a marshmallow.,candies,marshmallow,low,soft,negative,7456,food,workerid_0009
free_class_elicitation,14,65,speed,Melinda is taking a walk with an adult.,people,adult,high,quick,positive,12663,adults,workerid_0009
free_class_elicitation,15,20,height,Veronica is walking in a botanical garden and sees a redwood tree.,trees,redwood tree,high,tall,positive,4375,trees,workerid_0009
free_class_elicitation,16,70,strength,Stephanie is painting and tries a new watercolor.,paints,watercolor,low,weak,negative,9816,paints,workerid_0009
free_class_elicitation,17,42,price,Julia is looking to rent a new place and checks out a villa.,rentals,villa,high,expensive,positive,10143,villas,workerid_0009
free_class_elicitation,18,69,strength,Kim is watching a wrestler lift weights.,athletes,wrestler,high,weak,negative,14544,wrestlers,workerid_0009
free_class_elicitation,19,23,length_duration,Charles thinks about reading his favorite poem.,readings,poem,low,short,negative,5744,poems,workerid_0009
free_class_elicitation,20,29,loudness,David is listening to a rap concert.,concerts,rap concert,medium,quiet,negative,4520,concerts,workerid_0009
free_class_elicitation,21,12,hardness,Maya picks up a mango.,fruit,mango,medium,hard,positive,8448,fruits,workerid_0009
free_class_elicitation,22,52,size,Kim is at the zoo and sees a mouse.,animals,mouse,low,small,negative,14232,animals,workerid_0009
free_class_elicitation,23,22,length_duration,Greg is at a friend's house and notices the size of his pet snake.,pets,snake,high,long,positive,9880,snakes,workerid_0009
free_class_elicitation,24,48,price,Daniel is at the butchershop and looks at a piece of chicken.,meat,chicken,medium,cheap,negative,8656,stores,workerid_0009
free_class_elicitation,25,2,darkness,Michael bought a can of white paint and is testing it for the first time.,paint,white paint,high,light,positive,12792,colors,workerid_0009
free_class_elicitation,26,53,size,Michelle is looking in an insect terrarium and sees a moth.,insects,moth,medium,small,negative,7192,moths,workerid_0009
free_class_elicitation,27,89,width,Gabriel is walking on a country lane.,roads,country lane,low,wide,positive,6975,roads,workerid_0009
free_class_elicitation,28,11,hardness,Alicia steps onto the tile floor of a room.,floors,tile,high,hard,positive,5873,floors,workerid_0009
free_class_elicitation,29,44,price,Robert is shopping for spices and looks at salt.,spices,salt,low,expensive,positive,10399,salts,workerid_0009
free_class_elicitation,30,4,darkness,Stephen steps outside during the night.,times of day,night,low,light,positive,5486,nights,workerid_0009
free_class_elicitation,31,28,length_duration,Sophie is considering listening to her favorite song.,audios,song,low,long,positive,6104,songs,workerid_0009
free_class_elicitation,32,54,size,Cameron is at a farmer's market and picks up a peach.,fruit,peach,medium,big,positive,12591,peaches,workerid_0009
free_class_elicitation,33,30,loudness_n,Angela meets a friend at a conference center.,venue,conference center,medium,quiet,negative,16112,centers,workerid_0009
free_class_elicitation,34,58,size,Kathleen is taking a walk and sees a poodle.,dogs,poodle,medium,big,positive,47455,poodles,workerid_0009
free_class_elicitation,35,73,temperature_h,Claire takes the first sip from a juice.,drinks,juice,medium,cold,negative,4513,drinks,workerid_0009
free_class_elicitation,36,3,darkness,Alexander is at a bakery and looks at the color of a fruit cake.,cakes,fruit cake,medium,light,positive,7624,cakes,workerid_0009
free_class_elicitation,1,49,price,Daniel is at a liquor store and wants to buy a six-pack of beer.,alcoholic drinks,six-pack of beer,low,cheap,negative,8769,beer,workerid_0010
free_class_elicitation,2,64,speed,Greg is at a friend's house and sees their pet turtle come towards them.,pets,turtle,low,quick,positive,9978,turtles,workerid_0010
free_class_elicitation,3,42,price,Natalia is looking to rent a new place and checks out a house.,rentals,house,medium,expensive,positive,7462,houses,workerid_0010
free_class_elicitation,4,54,size,Julia is at a farmer's market and picks up a watermelon.,fruit,watermelon,high,small,negative,6193,watermelons,workerid_0010
free_class_elicitation,5,21,length_duration,Kim is at a pet store and notices the length of a chihuahua.,dogs,chihuahua,low,short,negative,13095,chihuahuas,workerid_0010
free_class_elicitation,6,83,weight,Lucas is at a craft shop and picks up a piece of wool.,materials,wool,high,light,negative,19334,fabric,workerid_0010
free_class_elicitation,7,55,size,William is at an aquarium and sees a tuna.,fish,tuna,medium,big,positive,7046,tuna,workerid_0010
free_class_elicitation,8,69,strength,Monica is watching a cyclist lift weights.,athletes,cyclist,medium,strong,positive,18822,cyclists,workerid_0010
free_class_elicitation,9,72,temperature,Anthony takes the first bite of his salad.,food,salad,medium,cold,negative,8092,food,workerid_0010
free_class_elicitation,10,56,size,Maya sees her friend's new truck.,vehicles,truck,high,big,positive,7059,trucks,workerid_0010
free_class_elicitation,11,60,speed,Jasmine is at the zoo and watches a sloth move.,animals,sloth,low,fast,positive,4635,sloths,workerid_0010
free_class_elicitation,12,27,length_duration,Veronica looks up information about an upcoming relay race.,races,relay race,medium,long,positive,5925,races,workerid_0010
free_class_elicitation,13,13,hardness,John is at a hardware store and picks up a piece of wood.,materials,wood,high,soft,negative,9452,fabric,workerid_0010
free_class_elicitation,14,84,weight,Charles learns about the weight of a friend's new motorcycle.,vehicles,motorcycle,medium,light,negative,12795,motorcycles ,workerid_0010
free_class_elicitation,15,23,length_duration,Kathleen thinks about reading her favorite poem.,readings,poem,low,short,negative,8559,poems,workerid_0010
free_class_elicitation,16,76,temperature_h,Michelle is spending her Saturday at an ice rink.,places,ice rink,low,cold,negative,9068,rinks,workerid_0010
free_class_elicitation,17,85,weight,Cameron is at a grocery store and picks up a watermelon.,fruit,watermelon,high,heavy,positive,7546,watermelons ,workerid_0010
free_class_elicitation,18,22,length_duration,Lee is at a friend's house and notices the size of his pet mouse.,pets,mouse,low,short,negative,3866,mice,workerid_0010
free_class_elicitation,19,90,width,Eric is attempting to move furniture through the patio door of his house.,doorways,patio door,medium,wide,positive,6087,doors,workerid_0010
free_class_elicitation,20,26,length_duration,Melinda is looking at a street on Google Maps.,roads,street,medium,long,positive,7277,streets,workerid_0010
free_class_elicitation,21,2,darkness,Tom bought a can of white paint and is testing it for the first time.,paint,white paint,high,dark,negative,4999,paint,workerid_0010
free_class_elicitation,22,78,weight,Mika is at the zoo and watches a monkey being lifted.,animals,monkey,medium,light,negative,10151,monkeys,workerid_0010
free_class_elicitation,23,63,speed_f,Gary is travelling on his friend's new rowboat.,boats,rowboat,low,fast,positive,14040,rowboats,workerid_0010
free_class_elicitation,24,12,hardness,David picks up a melon.,fruit,melon,high,hard,positive,4251,melons,workerid_0010
free_class_elicitation,25,62,speed_f,Claire sees a truck on the highway.,vehicles,truck,low,fast,positive,6263,trucks,workerid_0010
free_class_elicitation,26,33,loudness_n,Sophie is taking a walk in a park and hears the cry of a rooster.,birds,rooster,high,loud,positive,5436,roosters,workerid_0010
free_class_elicitation,27,59,speed,Michael is in the park and sees a walker.,people,walker,low,fast,positive,13933,walkers,workerid_0010
free_class_elicitation,28,8,darkness,Stephen is at a zoo and notices the fur color of a panther.,animals,panther,low,light,positive,5382,panthers,workerid_0010
free_class_elicitation,29,43,price,Gabriel is shopping for shoes and looks at a pair of boots.,shoes,boots,high,cheap,negative,4338,boots,workerid_0010
free_class_elicitation,30,10,hardness,Laura is eating a jolly rancher.,candies,jolly rancher,high,hard,positive,5393,candy,workerid_0010
free_class_elicitation,31,67,strength,Simon watches a child lift up a box.,people,child,low,weak,negative,9780,children,workerid_0010
free_class_elicitation,32,53,size,Kim is looking in an insect terrarium and sees a moth.,insects,moth,medium,small,negative,4467,moths,workerid_0010
free_class_elicitation,33,81,weight,Angela is helping a friend move and picks up their couch.,furniture,couch,high,heavy,positive,8215,couches ,workerid_0010
free_class_elicitation,34,65,speed,Alicia is taking a walk with a child.,people,child,medium,slow,negative,6381,children,workerid_0010
free_class_elicitation,35,75,temperature_h,Josh is in his kitchen and puts his hand in the pantry.,locations,pantry,medium,cold,negative,12832,pantry's ,workerid_0010
free_class_elicitation,36,80,weight,Jennifer is at an electronics store and picks up a printer.,electronic devices,printer,high,light,negative,5031,printers,workerid_0010
free_class_elicitation,1,13,hardness,Robert is at a hardware store and picks up a piece of plastic.,materials,plastic,medium,hard,positive,12559,materials,workerid_0011
free_class_elicitation,2,2,darkness,Claire bought a can of blue paint and is testing it for the first time.,paint,blue paint,medium,dark,negative,16646,blues,workerid_0011
free_class_elicitation,3,29,loudness,Kim is listening to a rap concert.,concerts,rap concert,medium,quiet,negative,7604,concerts,workerid_0011
free_class_elicitation,4,57,size,Cameron is shopping at an appliances store and looks at a toaster. ,appliances,toaster,low,big,positive,7895,toasters,workerid_0011
free_class_elicitation,5,17,height,John sees a teenager.,people,teenager,medium,tall,positive,8903,teenagers,workerid_0011
free_class_elicitation,6,47,price,Sophie is shopping for berries and looks at the price of raspberries.,berries,raspberries,medium,expensive,positive,10783,berries,workerid_0011
free_class_elicitation,7,33,loudness_n,Monica is taking a walk in a park and hears the cry of a crow.,birds,crow,medium,loud,positive,9966,birds,workerid_0011
free_class_elicitation,8,53,size,Kathleen is looking in an insect terrarium and sees an ant.,insects,ant,low,big,positive,10615,ants,workerid_0011
free_class_elicitation,9,84,weight,Kim learns about the weight of a friend's new bike.,vehicles,bike,low,light,negative,6456,bikes,workerid_0011
free_class_elicitation,10,30,loudness_n,Daniel meets a friend at a church.,venue,church,low,quiet,negative,9495,churches,workerid_0011
free_class_elicitation,11,56,size,Veronica sees her friend's new truck.,vehicles,truck,high,small,negative,6502,trucks,workerid_0011
free_class_elicitation,12,64,speed,Julia is at a friend's house and sees their pet turtle come towards them.,pets,turtle,low,quick,positive,8818,turtles,workerid_0011
free_class_elicitation,13,26,length_duration,Stephanie is looking at a highway on Google Maps.,roads,highway,high,short,negative,12120,highways,workerid_0011
free_class_elicitation,14,44,price,Natalia is shopping for spices and looks at garlic.,spices,garlic,medium,cheap,negative,15631,spices,workerid_0011
free_class_elicitation,15,73,temperature_h,Tanya takes the first sip from a milkshake.,drinks,milkshake,low,cold,negative,9032,drinks,workerid_0011
free_class_elicitation,16,72,temperature,Michelle takes the first bite of her salad.,food,salad,medium,warm,positive,8376,salads,workerid_0011
free_class_elicitation,17,81,weight,Simon is helping a friend move and picks up their couch.,furniture,couch,high,heavy,positive,10734,furniture,workerid_0011
free_class_elicitation,18,51,size,Greg is at a gardening store and looks at a bush.,plants,bush,medium,small,negative,8368,bushes,workerid_0011
free_class_elicitation,19,83,weight,Laura is at a craft shop and picks up a piece of silk.,materials,silk,low,light,negative,11252,fabrics,workerid_0011
free_class_elicitation,20,35,loudness,Tom is in a room with a baby.,people,baby,high,loud,positive,9733,babies,workerid_0011
free_class_elicitation,21,23,length_duration,Mika thinks about reading her favorite novel.,readings,novel,high,long,positive,9736,books,workerid_0011
free_class_elicitation,22,68,strength,Alexander is hearing about the thunderstorm that is heading towards them.,storms,thunderstorm,medium,weak,negative,12852,storms,workerid_0011
free_class_elicitation,23,85,weight,Charles is at a grocery store and picks up a plum.,fruit,plum,low,heavy,positive,5692,plums,workerid_0011
free_class_elicitation,24,74,temperature,Melinda steps outside on a day in summer.,seasons,summer,high,warm,positive,7427,days,workerid_0011
free_class_elicitation,25,82,weight,Jasmine is walking outside and picks up a rock.,objects,rock,high,heavy,positive,5682,rocks,workerid_0011
free_class_elicitation,26,59,speed,William is in the park and sees a runner.,people,runner,high,slow,negative,6296,runners,workerid_0011
free_class_elicitation,27,32,loudness_n,Angela is spending her Saturday night at a concert.,venues,concert,high,quiet,negative,5185,concerts,workerid_0011
free_class_elicitation,28,58,size,Gary is taking a walk and sees a chihuahua.,dogs,chihuahua,low,small,negative,6006,dogs,workerid_0011
free_class_elicitation,29,14,hardness,Josh is in his bedroom and sits on a pillow.,furniture,pillow,low,hard,positive,5752,pillows,workerid_0011
free_class_elicitation,30,31,loudness_n,Gabriel is at a friend's place and hears his pet fish.,pets,fish,low,quiet,negative,9985,fish,workerid_0011
free_class_elicitation,31,61,speed,Jennifer wants to cook dinner and considers using a frying pan.,cookware,frying pan,medium,slow,negative,14064,pans,workerid_0011
free_class_elicitation,32,52,size,Lucas is at the zoo and sees an elephant.,animals,elephant,high,big,positive,9452,animals,workerid_0011
free_class_elicitation,33,87,width,Michael is driving on a downtown street.,roads,downtown street,medium,wide,positive,7093,streets,workerid_0011
free_class_elicitation,34,60,speed,Maya is at the zoo and watches a cheetah move.,animals,cheetah,high,slow,negative,8059,cheetahs,workerid_0011
free_class_elicitation,35,3,darkness,Stephen is at a bakery and looks at the color of a chocolate cake.,cakes,chocolate cake,low,light,positive,12054,cakes,workerid_0011
free_class_elicitation,36,71,strength,Anthony is examining the walls of a friend's new mansion.,walls,mansion,high,weak,negative,6533,walls,workerid_0011
free_class_elicitation,1,18,height,Charles is looking at a tulip.,flowers,tulip,medium,short,negative,8910,tulips,workerid_0012
free_class_elicitation,2,55,size,Josh is at an aquarium and sees a shark.,fish,shark,high,big,positive,13455,sharks,workerid_0012
free_class_elicitation,3,83,weight,Alicia is at a craft shop and picks up a piece of wool.,materials,wool,high,light,negative,13830,pieces of wool,workerid_0012
free_class_elicitation,4,60,speed,Veronica is at the zoo and watches a cheetah move.,animals,cheetah,high,fast,positive,8772,animals,workerid_0012
free_class_elicitation,5,25,length_duration,Melinda thinks about watching her favorite documentary.,entertainment,documentary,medium,long,positive,11276,documentaries ,workerid_0012
free_class_elicitation,6,4,darkness,Kim steps outside during the night.,times of day,night,low,dark,negative,12420,times of the day,workerid_0012
free_class_elicitation,7,16,height,Sophie is looking at a strip mall.,buildings,strip mall,low,short,negative,12578,strip malls,workerid_0012
free_class_elicitation,8,68,strength,William is hearing about the hurricane that is heading towards them.,storms,hurricane,high,weak,negative,9143,hurricanes,workerid_0012
free_class_elicitation,9,26,length_duration,Eric is looking at a street on Google Maps.,roads,street,medium,long,positive,8656,streets,workerid_0012
free_class_elicitation,10,57,size,Anthony is shopping at an appliances store and looks at a refrigerator. ,appliances,refrigerator,high,big,positive,12697,refrigerators,workerid_0012
free_class_elicitation,11,66,speed_f,Jennifer is at an airport and sees a glider in the air.,aircrafts,glider,low,fast,positive,11817,gliders,workerid_0012
free_class_elicitation,12,84,weight,Tom learns about the weight of a friend's new bike.,vehicles,bike,low,heavy,positive,9280,bikes,workerid_0012
free_class_elicitation,13,5,darkness,Alexander is writing with a piece of chalk and notices the color of the script.,writing utensils,piece of chalk,high,light,positive,17465,colors,workerid_0012
free_class_elicitation,14,45,price,Lucas wants to buy a bracelet and looks at one made of plastic.,bracelets,plastic,low,cheap,negative,12889,bracelets ,workerid_0012
free_class_elicitation,15,70,strength,Lee is painting and tries a new watercolor.,paints,watercolor,low,strong,positive,27140,watercolors,workerid_0012
free_class_elicitation,16,20,height,Greg is walking in a botanical garden and sees a redwood tree.,trees,redwood tree,high,short,negative,8909,redwood trees,workerid_0012
free_class_elicitation,17,80,weight,Angela is at an electronics store and picks up a laptop.,electronic devices,laptop,medium,light,negative,7343,laptops,workerid_0012
free_class_elicitation,18,67,strength,Jasmine watches a child lift up a box.,people,child,low,strong,positive,7000,children,workerid_0012
free_class_elicitation,19,50,price,Julia is considering different places for dinner and looks at the menu of a Korean restaurant.,restaurants,Korean restaurant,medium,expensive,positive,12372,restaurants ,workerid_0012
free_class_elicitation,20,6,darkness,Cameron is creating a flower bouquet and picks out a rose.,flowers,rose,medium,dark,negative,6718,roses,workerid_0012
free_class_elicitation,21,58,size,Michelle is taking a walk and sees a chihuahua.,dogs,chihuahua,low,small,negative,7960,dogs,workerid_0012
free_class_elicitation,22,14,hardness,Simon is in his bedroom and sits on a bedboard.,furniture,bedboard,high,soft,negative,10874,bedboards,workerid_0012
free_class_elicitation,23,69,strength,John is watching a cyclist lift weights.,athletes,cyclist,medium,strong,positive,8276,people,workerid_0012
free_class_elicitation,24,15,height,Kathleen is at a zoo and looks at a monkey.,animals,monkey,medium,short,negative,9880,monkeys ,workerid_0012
free_class_elicitation,25,1,darkness,Maya is going for a walk and notices the color of a crow.,birds,crow,low,dark,negative,8398,crows,workerid_0012
free_class_elicitation,26,82,weight,Michael is walking outside and picks up a stick.,objects,stick,medium,light,negative,11070,sticks,workerid_0012
free_class_elicitation,27,12,hardness,David picks up a banana.,fruit,banana,low,soft,negative,8479,bananas,workerid_0012
free_class_elicitation,28,24,length_duration,Monica sees a friend driving a limousine.,vehicles,limousine,high,short,negative,7343,limousines,workerid_0012
free_class_elicitation,29,2,darkness,Natalia bought a can of black paint and is testing it for the first time.,paint,black paint,low,light,positive,13256,shades of black,workerid_0012
free_class_elicitation,30,64,speed,Stephanie is at a friend's house and sees their pet rabbit come towards them.,pets,rabbit,high,slow,negative,8027,rabbits,workerid_0012
free_class_elicitation,31,87,width,Daniel is driving on a highway.,roads,highway,high,wide,positive,9074,highways,workerid_0012
free_class_elicitation,32,62,speed_f,Mika sees a motorcycle on the highway.,vehicles,motorcycle,high,fast,positive,11172,motorcycles,workerid_0012
free_class_elicitation,33,36,loudness_n,Robert is planning to move and reads about a nearby town.,places,town,medium,quiet,negative,12130,nearby towns,workerid_0012
free_class_elicitation,34,51,size,Gary is at a gardening store and looks at a bush.,plants,bush,medium,big,positive,6400,bushes,workerid_0012
free_class_elicitation,35,28,length_duration,Laura is considering listening to her favorite song.,audios,song,low,long,positive,6134,songs,workerid_0012
free_class_elicitation,36,75,temperature_h,Kim is in her kitchen and puts her hand in the pantry.,locations,pantry,medium,warm,positive,12912,pantries ,workerid_0012
free_class_elicitation,1,7,darkness,David takes a walk and notices the coat of a spaniel.,dogs,spaniel,medium,dark,negative,15225,coats,workerid_0013
free_class_elicitation,2,67,strength,Alexander watches a teenager lift up a box.,people,teenager,medium,strong,positive,10206,people,workerid_0013
free_class_elicitation,3,72,temperature,Julia takes the first bite of her salad.,food,salad,medium,cold,negative,8582,salads,workerid_0013
free_class_elicitation,4,42,price,Veronica is looking to rent a new place and checks out an apartment.,rentals,apartment,low,expensive,positive,3519,apartments,workerid_0013
free_class_elicitation,5,59,speed,Angela is in the park and sees a runner.,people,runner,high,slow,negative,3126,runners,workerid_0013
free_class_elicitation,6,20,height,Robert is walking in a botanical garden and sees a bonsai tree.,trees,bonsai tree,low,short,negative,5567,bonsai trees,workerid_0013
free_class_elicitation,7,3,darkness,Sophie is at a bakery and looks at the color of a cheesecake.,cakes,cheesecake,high,light,positive,5646,cheesecakes,workerid_0013
free_class_elicitation,8,22,length_duration,Gabriel is at a friend's house and notices the size of his pet hamster.,pets,hamster,medium,long,positive,11149,hamsters,workerid_0013
free_class_elicitation,9,35,loudness,Greg is in a room with an adult.,people,adult,low,loud,positive,4063,adults,workerid_0013
free_class_elicitation,10,85,weight,Simon is at a grocery store and picks up a watermelon.,fruit,watermelon,high,light,negative,4013,watermelons,workerid_0013
free_class_elicitation,11,46,price,William is clothing shopping and looks at a coat.,clothes,coat,medium,cheap,negative,4679,coats,workerid_0013
free_class_elicitation,12,32,loudness_n,Lucas is spending his Saturday night at a restaurant.,venues,restaurant,medium,noisy,positive,6142,restaurants,workerid_0013
free_class_elicitation,13,60,speed,Laura is at the zoo and watches a sloth move.,animals,sloth,low,slow,negative,3574,sloths,workerid_0013
free_class_elicitation,14,63,speed_f,Tom is travelling on his friend's new speedboat.,boats,speedboat,high,fast,positive,4103,speedboats,workerid_0013
free_class_elicitation,15,2,darkness,Claire bought a can of black paint and is testing it for the first time.,paint,black paint,low,dark,negative,13367,paint,workerid_0013
free_class_elicitation,16,80,weight,Cameron is at an electronics store and picks up a cell phone.,electronic devices,cell phone,low,heavy,positive,5887,cell phones,workerid_0013
free_class_elicitation,17,43,price,Daniel is shopping for shoes and looks at a pair of sneakers.,shoes,sneakers,medium,expensive,positive,2295,sneakers,workerid_0013
free_class_elicitation,18,8,darkness,Jennifer is at a zoo and notices the fur color of a panther.,animals,panther,low,light,positive,3205,panthers,workerid_0013
free_class_elicitation,19,70,strength,Anthony is painting and tries a new watercolor.,paints,watercolor,low,weak,negative,3686,watercolors,workerid_0013
free_class_elicitation,20,12,hardness,Kathleen picks up a melon.,fruit,melon,high,soft,negative,3733,melons,workerid_0013
free_class_elicitation,21,78,weight,Kim is at the zoo and watches a fish being lifted.,animals,fish,low,heavy,positive,2352,fish,workerid_0013
free_class_elicitation,22,74,temperature,Josh steps outside on a day in summer.,seasons,summer,high,cold,negative,3255,days,workerid_0013
free_class_elicitation,23,64,speed,Stephanie is at a friend's house and sees their pet cat come towards them.,pets,cat,medium,slow,negative,3767,cats,workerid_0013
free_class_elicitation,24,4,darkness,Charles steps outside during the dusk.,times of day,dusk,medium,dark,negative,16543,evenings,workerid_0013
free_class_elicitation,25,51,size,Michelle is at a gardening store and looks at a tree.,plants,tree,high,big,positive,3614,trees,workerid_0013
free_class_elicitation,26,39,loudness_n,Maya is at a lake and hears the sound of a powerboat.,boats,powerboat,high,loud,positive,2565,powerboats,workerid_0013
free_class_elicitation,27,29,loudness,Kim is listening to a choral concert.,concerts,choral concert,low,loud,positive,8186,concerts,workerid_0013
free_class_elicitation,28,28,length_duration,Michael is considering listening to his favorite podcast episode.,audios,podcast episode,medium,long,positive,3574,podcasts,workerid_0013
free_class_elicitation,29,81,weight,Melinda is helping a friend move and picks up their couch.,furniture,couch,high,heavy,positive,2502,couch,workerid_0013
free_class_elicitation,30,18,height,Monica is looking at a tulip.,flowers,tulip,medium,short,negative,3943,tulips,workerid_0013
free_class_elicitation,31,40,loudness,Jasmine wants to play music and tries out a bass guitar.,guitars,bass guitar,high,quiet,negative,3498,bass guitars,workerid_0013
free_class_elicitation,32,56,size,Natalia sees her friend's new smartcar.,vehicles,smartcar,low,small,negative,2764,smartcars,workerid_0013
free_class_elicitation,33,24,length_duration,Tanya sees a friend driving a smartcar.,vehicles,smartcar,low,short,negative,3501,smartcars,workerid_0013
free_class_elicitation,34,36,loudness_n,John is planning to move and reads about a nearby city.,places,city,high,quiet,negative,4328,cities,workerid_0013
free_class_elicitation,35,77,temperature_h,Alicia is at a restaurant and takes a taste of a muffin. ,desserts,muffin,medium,hot,positive,2066,muffins,workerid_0013
free_class_elicitation,36,31,loudness_n,Stephen is at a friend's place and hears his pet parrot.,pets,parrot,high,loud,positive,3083,parrots,workerid_0013
free_class_elicitation,1,5,darkness,Angela is writing with a pencil and notices the color of the script.,writing utensils,pencil,low,dark,negative,10544,colors,workerid_0014
free_class_elicitation,2,69,strength,Alexander is watching a wrestler lift weights.,athletes,wrestler,high,strong,positive,5453,people,workerid_0014
free_class_elicitation,3,88,width,Kim is standing at the bank of a creek.,waterways,creek,low,wide,positive,16389,creeks,workerid_0014
free_class_elicitation,4,57,size,Josh is shopping at an appliances store and looks at a refrigerator. ,appliances,refrigerator,high,big,positive,8293,refrigerators,workerid_0014
free_class_elicitation,5,14,hardness,Eric is in his bedroom and sits on a pillow.,furniture,pillow,low,hard,positive,5415,pillows,workerid_0014
free_class_elicitation,6,54,size,Michael is at a farmer's market and picks up a watermelon.,fruit,watermelon,high,small,negative,4721,watermelons,workerid_0014
free_class_elicitation,7,59,speed,Tom is in the park and sees a walker.,people,walker,low,slow,negative,4737,walkers,workerid_0014
free_class_elicitation,8,11,hardness,Daniel steps onto the wood floor of a room.,floors,wood,medium,hard,positive,5291,floors,workerid_0014
free_class_elicitation,9,46,price,Lucas is clothing shopping and looks at a suit.,clothes,suit,high,cheap,negative,3305,suits,workerid_0014
free_class_elicitation,10,36,loudness_n,Charles is planning to move and reads about a nearby city.,places,city,high,noisy,positive,6812,cities,workerid_0014
free_class_elicitation,11,3,darkness,Greg is at a bakery and looks at the color of a fruit cake.,cakes,fruit cake,medium,light,positive,22733,colors,workerid_0014
free_class_elicitation,12,9,hardness,Anthony is at a vegetable market and picks up a tomato.,vegetables,tomato,medium,hard,positive,5420,tomatoes,workerid_0014
free_class_elicitation,13,35,loudness,Alicia is in a room with a baby.,people,baby,high,loud,positive,3679,babies,workerid_0014
free_class_elicitation,14,78,weight,Stephen is at the zoo and watches a monkey being lifted.,animals,monkey,medium,heavy,positive,4971,monkies,workerid_0014
free_class_elicitation,15,30,loudness_n,John meets a friend at a church.,venue,church,low,noisy,positive,4244,churches,workerid_0014
free_class_elicitation,16,22,length_duration,Lee is at a friend's house and notices the size of his pet mouse.,pets,mouse,low,short,negative,3873,mice,workerid_0014
free_class_elicitation,17,62,speed_f,Michelle sees a car on the highway.,vehicles,car,medium,fast,positive,2409,cars,workerid_0014
free_class_elicitation,18,76,temperature_h,Sophie is spending her Saturday at a shopping mall.,places,shopping mall,medium,cold,negative,5212,days,workerid_0014
free_class_elicitation,19,47,price,Laura is shopping for berries and looks at the price of strawberries.,berries,strawberries,low,cheap,negative,26283,strawberries,workerid_0014
free_class_elicitation,20,73,temperature_h,Kim takes the first sip from a juice.,drinks,juice,medium,cold,negative,3972,juices,workerid_0014
free_class_elicitation,21,87,width,Melinda is driving on a downtown street.,roads,downtown street,medium,narrow,negative,2773,streets,workerid_0014
free_class_elicitation,22,12,hardness,Kathleen picks up a melon.,fruit,melon,high,soft,negative,4159,melons,workerid_0014
free_class_elicitation,23,15,height,Stephanie is at a zoo and looks at a monkey.,animals,monkey,medium,short,negative,4921,monkies,workerid_0014
free_class_elicitation,24,43,price,David is shopping for shoes and looks at a pair of sneakers.,shoes,sneakers,medium,expensive,positive,5415,sneakers,workerid_0014
free_class_elicitation,25,90,width,Mika is attempting to move furniture through the back door of her house.,doorways,back door,low,wide,positive,6331,furniture,workerid_0014
free_class_elicitation,26,63,speed_f,Cameron is travelling on his friend's new rowboat.,boats,rowboat,low,fast,positive,5491,rowboats,workerid_0014
free_class_elicitation,27,74,temperature,Gary steps outside on a day in summer.,seasons,summer,high,warm,positive,17254,days,workerid_0014
free_class_elicitation,28,61,speed,Gabriel wants to cook dinner and considers using an instant pot.,cookware,instant pot,high,quick,positive,6241,instant pots,workerid_0014
free_class_elicitation,29,16,height,Jennifer is looking at a skyscraper.,buildings,skyscraper,high,short,negative,4599,skyscrapers,workerid_0014
free_class_elicitation,30,84,weight,Robert learns about the weight of a friend's new motorcycle.,vehicles,motorcycle,medium,light,negative,4246,motorcycles,workerid_0014
free_class_elicitation,31,45,price,Jasmine wants to buy a bracelet and looks at one made of plastic.,bracelets,plastic,low,cheap,negative,4250,bracelets,workerid_0014
free_class_elicitation,32,23,length_duration,Monica thinks about reading her favorite story.,readings,story,medium,short,negative,4768,stories,workerid_0014
free_class_elicitation,33,44,price,Veronica is shopping for spices and looks at saffron.,spices,saffron,high,cheap,negative,6357,spices,workerid_0014
free_class_elicitation,34,64,speed,Tanya is at a friend's house and sees their pet turtle come towards them.,pets,turtle,low,slow,negative,6536,pets,workerid_0014
free_class_elicitation,35,42,price,Natalia is looking to rent a new place and checks out an apartment.,rentals,apartment,low,expensive,positive,6029,apartments,workerid_0014
free_class_elicitation,36,89,width,William is walking on a boulevard.,roads,boulevard,high,narrow,negative,4529,boulevards,workerid_0014
free_class_elicitation,1,84,weight,Tanya learns about the weight of a friend's new truck.,vehicles,truck,high,heavy,positive,17739,trucks,workerid_0015
free_class_elicitation,2,50,price,Charles is considering different places for dinner and looks at the menu of a Korean restaurant.,restaurants,Korean restaurant,medium,cheap,negative,20373,meals in resataurants,workerid_0015
free_class_elicitation,3,54,size,Jennifer is at a farmer's market and picks up a kumquat.,fruit,kumquat,low,big,positive,16961,kumquats,workerid_0015
free_class_elicitation,4,1,darkness,Gabriel is going for a walk and notices the color of a parrot.,birds,parrot,medium,light,positive,12809,animals,workerid_0015
free_class_elicitation,5,11,hardness,Michelle steps onto the carpet floor of a room.,floors,carpet,low,soft,negative,22941,kinds of carpet,workerid_0015
free_class_elicitation,6,46,price,Jasmine is clothing shopping and looks at a coat.,clothes,coat,medium,expensive,positive,62229,clothes,workerid_0015
free_class_elicitation,7,73,temperature_h,Greg takes the first sip from a coffee.,drinks,coffee,high,cold,negative,19130,hot coffees,workerid_0015
free_class_elicitation,8,36,loudness_n,Anthony is planning to move and reads about a nearby village.,places,village,low,quiet,negative,13819,places to live,workerid_0015
free_class_elicitation,9,81,weight,Tom is helping a friend move and picks up their chair.,furniture,chair,medium,light,negative,7668,chairs,workerid_0015
free_class_elicitation,10,59,speed,Stephen is in the park and sees a jogger.,people,jogger,medium,slow,negative,8023,joggers,workerid_0015
free_class_elicitation,11,52,size,Maya is at the zoo and sees a mouse.,animals,mouse,low,big,positive,8175,mice,workerid_0015
free_class_elicitation,12,13,hardness,Laura is at a hardware store and picks up a piece of plastic.,materials,plastic,medium,soft,negative,20660,pieces of plastic she's encountered,workerid_0015
free_class_elicitation,13,41,price,Daniel is at a decoration shop and looks at a statue made of platinum.,statues,platinum,high,expensive,positive,44911,kinds of statues,workerid_0015
free_class_elicitation,14,25,length_duration,Michael thinks about watching his favorite documentary.,entertainment,documentary,medium,long,positive,21667,documentaries or movies,workerid_0015
free_class_elicitation,15,49,price,Kathleen is at a liquor store and wants to buy a six-pack of beer.,alcoholic drinks,six-pack of beer,low,expensive,positive,8186,beer,workerid_0015
free_class_elicitation,16,9,hardness,Veronica is at a vegetable market and picks up a mushroom.,vegetables,mushroom,low,soft,negative,15064,mushrooms,workerid_0015
free_class_elicitation,17,85,weight,Kim is at a grocery store and picks up a orange.,fruit,orange,medium,light,negative,17491,oranges,workerid_0015
free_class_elicitation,18,27,length_duration,Mika looks up information about an upcoming triathlon race.,races,triathlon race,high,long,positive,5839,races,workerid_0015
free_class_elicitation,19,14,hardness,Alexander is in his bedroom and sits on a bedboard.,furniture,bedboard,high,soft,negative,13415,bedboards,workerid_0015
free_class_elicitation,20,55,size,Stephanie is at an aquarium and sees a tuna.,fish,tuna,medium,big,positive,5734,fish,workerid_0015
free_class_elicitation,21,80,weight,Josh is at an electronics store and picks up a cell phone.,electronic devices,cell phone,low,heavy,positive,8877,cell phones,workerid_0015
free_class_elicitation,22,20,height,Lee is walking in a botanical garden and sees a redwood tree.,trees,redwood tree,high,short,negative,7951,redwoods,workerid_0015
free_class_elicitation,23,63,speed_f,Gary is travelling on his friend's new speedboat.,boats,speedboat,high,slow,negative,6188,speedboats,workerid_0015
free_class_elicitation,24,17,height,Natalia sees an adult.,people,adult,high,short,negative,5890,adults,workerid_0015
free_class_elicitation,25,7,darkness,Kim takes a walk and notices the coat of a poodle.,dogs,poodle,high,light,positive,14809,poodles,workerid_0015
free_class_elicitation,26,33,loudness_n,David is taking a walk in a park and hears the cry of a finch.,birds,finch,low,quiet,negative,8679,birds,workerid_0015
free_class_elicitation,27,78,weight,Claire is at the zoo and watches a fish being lifted.,animals,fish,low,heavy,positive,13910,things you pick up,workerid_0015
free_class_elicitation,28,53,size,Monica is looking in an insect terrarium and sees a moth.,insects,moth,medium,small,negative,9797,insects,workerid_0015
free_class_elicitation,29,67,strength,Robert watches a child lift up a box.,people,child,low,weak,negative,10688,people,workerid_0015
free_class_elicitation,30,88,width,John is standing at the bank of a river.,waterways,river,high,wide,positive,5699,rivers,workerid_0015
free_class_elicitation,31,15,height,Eric is at a zoo and looks at a monkey.,animals,monkey,medium,tall,positive,5224,monkeys,workerid_0015
free_class_elicitation,32,21,length_duration,Sophie is at a pet store and notices the length of a dachshund.,dogs,dachshund,high,short,negative,7764,dachshunds,workerid_0015
free_class_elicitation,33,19,height,Simon sees a basketball player.,people,basketball player,high,tall,positive,7500,people,workerid_0015
free_class_elicitation,34,69,strength,Cameron is watching a golfer lift weights.,athletes,golfer,low,weak,negative,12051,people,workerid_0015
free_class_elicitation,35,79,weight,Lucas lifts up a baby.,people,baby,low,heavy,positive,5097,babies,workerid_0015
free_class_elicitation,36,58,size,Angela is taking a walk and sees a poodle.,dogs,poodle,medium,big,positive,6899,dogs,workerid_0015
free_class_elicitation,1,68,strength,Michelle is hearing about the hurricane that is heading towards them.,storms,hurricane,high,weak,negative,13662,Hurricanes,workerid_0016
free_class_elicitation,2,82,weight,Charles is walking outside and picks up a rock.,objects,rock,high,light,negative,8533,Rocks,workerid_0016
free_class_elicitation,3,51,size,Josh is at a gardening store and looks at a tree.,plants,tree,high,big,positive,5872,Trees,workerid_0016
free_class_elicitation,4,17,height,Natalia sees a child.,people,child,low,short,negative,5464,Children,workerid_0016
free_class_elicitation,5,41,price,Maya is at a decoration shop and looks at a statue made of bronze.,statues,bronze,medium,cheap,negative,11904,Bronze statues,workerid_0016
free_class_elicitation,6,58,size,Claire is taking a walk and sees a chihuahua.,dogs,chihuahua,low,big,positive,17935,Chihuahuas,workerid_0016
free_class_elicitation,7,84,weight,Kathleen learns about the weight of a friend's new motorcycle.,vehicles,motorcycle,medium,heavy,positive,6512,Motorcycles,workerid_0016
free_class_elicitation,8,11,hardness,Mika steps onto the wood floor of a room.,floors,wood,medium,soft,negative,7659,Floors,workerid_0016
free_class_elicitation,9,3,darkness,William is at a bakery and looks at the color of a cheesecake.,cakes,cheesecake,high,dark,negative,4727,Cheesecakes,workerid_0016
free_class_elicitation,10,62,speed_f,Robert sees a car on the highway.,vehicles,car,medium,slow,negative,6728,Cars on the highway,workerid_0016
free_class_elicitation,11,50,price,Julia is considering different places for dinner and looks at the menu of a Chinese restaurant.,restaurants,Chinese restaurant,low,expensive,positive,11864,Chinese restaurants,workerid_0016
free_class_elicitation,12,28,length_duration,Eric is considering listening to his favorite opera.,audios,opera,high,long,positive,19888,Operas,workerid_0016
free_class_elicitation,13,18,height,Simon is looking at a tulip.,flowers,tulip,medium,short,negative,4575,Flowers,workerid_0016
free_class_elicitation,14,64,speed,Sophie is at a friend's house and sees their pet rabbit come towards them.,pets,rabbit,high,quick,positive,9151,Rabbits,workerid_0016
free_class_elicitation,15,27,length_duration,Michael looks up information about an upcoming relay race.,races,relay race,medium,long,positive,7062,Relay races,workerid_0016
free_class_elicitation,16,43,price,Stephen is shopping for shoes and looks at a pair of sandals.,shoes,sandals,low,expensive,positive,5520,Sandals,workerid_0016
free_class_elicitation,17,20,height,Kim is walking in a botanical garden and sees a bonsai tree.,trees,bonsai tree,low,short,negative,6479,Bonsai trees,workerid_0016
free_class_elicitation,18,25,length_duration,Alicia thinks about watching her favorite movie.,entertainment,movie,high,long,positive,7560,Movies,workerid_0016
free_class_elicitation,19,10,hardness,Daniel is eating a piece of chocolate.,candies,piece of chocolate,medium,hard,positive,5023,Chocolates,workerid_0016
free_class_elicitation,20,38,loudness,Greg is in a forest and hears a owl.,birds,owl,low,loud,positive,5041,Owls,workerid_0016
free_class_elicitation,21,19,height,Veronica sees a jockey.,people,jockey,low,short,negative,33824,jockeys,workerid_0016
free_class_elicitation,22,80,weight,Melinda is at an electronics store and picks up a printer.,electronic devices,printer,high,light,negative,4639,Printers,workerid_0016
free_class_elicitation,23,9,hardness,Cameron is at a vegetable market and picks up a mushroom.,vegetables,mushroom,low,soft,negative,5440,Mushrooms,workerid_0016
free_class_elicitation,24,63,speed_f,Monica is travelling on her friend's new speedboat.,boats,speedboat,high,fast,positive,4482,Speedboats,workerid_0016
free_class_elicitation,25,81,weight,Jennifer is helping a friend move and picks up their chair.,furniture,chair,medium,light,negative,4637,Chairs,workerid_0016
free_class_elicitation,26,32,loudness_n,Alexander is spending his Saturday night at a concert.,venues,concert,high,quiet,negative,15825,Auditoriums,workerid_0016
free_class_elicitation,27,83,weight,Gary is at a craft shop and picks up a piece of wool.,materials,wool,high,light,negative,7856,Fabric,workerid_0016
free_class_elicitation,28,53,size,David is looking in an insect terrarium and sees an ant.,insects,ant,low,small,negative,6352,Insects,workerid_0016
free_class_elicitation,29,87,width,Anthony is driving on a highway.,roads,highway,high,wide,positive,5815,Highways,workerid_0016
free_class_elicitation,30,69,strength,Angela is watching a cyclist lift weights.,athletes,cyclist,medium,weak,negative,11602,Cyclists,workerid_0016
free_class_elicitation,31,23,length_duration,Gabriel thinks about reading his favorite poem.,readings,poem,low,short,negative,4304,Poems,workerid_0016
free_class_elicitation,32,90,width,John is attempting to move furniture through the patio door of his house.,doorways,patio door,medium,wide,positive,6831,Doors,workerid_0016
free_class_elicitation,33,78,weight,Laura is at the zoo and watches a fish being lifted.,animals,fish,low,heavy,positive,8417,Fish,workerid_0016
free_class_elicitation,34,24,length_duration,Lucas sees a friend driving a pick-up truck.,vehicles,pick-up truck,medium,long,positive,6958,Pickup trucks,workerid_0016
free_class_elicitation,35,14,hardness,Stephanie is in her bedroom and sits on a pillow.,furniture,pillow,low,hard,positive,3879,Pillows,workerid_0016
free_class_elicitation,36,26,length_duration,Kim is looking at a street on Google Maps.,roads,street,medium,long,positive,9010,Streets on Google maps,workerid_0016
free_class_elicitation,1,13,hardness,Gary is at a hardware store and picks up a piece of wood.,materials,wood,high,soft,negative,11245,other pieces of wood.,workerid_0017
free_class_elicitation,2,38,loudness,Veronica is in a forest and hears a mockingbird .,birds,mockingbird ,high,quiet,negative,28360,locations,workerid_0017
free_class_elicitation,3,66,speed_f,Lucas is at an airport and sees a helicopter in the air.,aircrafts,helicopter,medium,fast,positive,7726,vehicles,workerid_0017
free_class_elicitation,4,90,width,Alexander is attempting to move furniture through the patio door of his house.,doorways,patio door,medium,narrow,negative,16505,the furniture,workerid_0017
free_class_elicitation,5,11,hardness,Claire steps onto the carpet floor of a room.,floors,carpet,low,soft,negative,5576,carpets,workerid_0017
free_class_elicitation,6,85,weight,Laura is at a grocery store and picks up a watermelon.,fruit,watermelon,high,heavy,positive,5240,fruits,workerid_0017
free_class_elicitation,7,28,length_duration,Kim is considering listening to her favorite podcast episode.,audios,podcast episode,medium,short,negative,5160,podcasts,workerid_0017
free_class_elicitation,8,52,size,Cameron is at the zoo and sees an elephant.,animals,elephant,high,big,positive,4296,animals,workerid_0017
free_class_elicitation,9,7,darkness,Charles takes a walk and notices the coat of a pitbull.,dogs,pitbull,low,light,positive,8425,coats of animals,workerid_0017
free_class_elicitation,10,29,loudness,Daniel is listening to a rock concert.,concerts,rock concert,high,loud,positive,8479,music,workerid_0017
free_class_elicitation,11,83,weight,Tanya is at a craft shop and picks up a piece of cotton.,materials,cotton,medium,light,negative,13783,things at the craft shop,workerid_0017
free_class_elicitation,12,69,strength,Kathleen is watching a cyclist lift weights.,athletes,cyclist,medium,weak,negative,8544,other weight lifters,workerid_0017
free_class_elicitation,13,48,price,Gabriel is at the butchershop and looks at a piece of pork.,meat,pork,low,cheap,negative,5792,meats,workerid_0017
free_class_elicitation,14,31,loudness_n,Kim is at a friend's place and hears her pet fish.,pets,fish,low,loud,positive,7040,things in the room,workerid_0017
free_class_elicitation,15,40,loudness,Anthony wants to play music and tries out an acoustic guitar.,guitars,acoustic guitar,medium,loud,positive,7080,other guitars,workerid_0017
free_class_elicitation,16,5,darkness,Robert is writing with a piece of chalk and notices the color of the script.,writing utensils,piece of chalk,high,dark,negative,11745,other colors used on similar items,workerid_0017
free_class_elicitation,17,19,height,Greg sees a jockey.,people,jockey,low,short,negative,4295,people,workerid_0017
free_class_elicitation,18,1,darkness,Jasmine is going for a walk and notices the color of a seagull.,birds,seagull,high,light,positive,4641,colors,workerid_0017
free_class_elicitation,19,26,length_duration,Maya is looking at a street on Google Maps.,roads,street,medium,short,negative,4929,streets,workerid_0017
free_class_elicitation,20,10,hardness,William is eating a marshmallow.,candies,marshmallow,low,hard,positive,7255,marshmallows,workerid_0017
free_class_elicitation,21,76,temperature_h,Lee is spending his Saturday at a sauna.,places,sauna,high,hot,positive,4377,environments,workerid_0017
free_class_elicitation,22,81,weight,Michelle is helping a friend move and picks up their couch.,furniture,couch,high,light,negative,5637,furniture,workerid_0017
free_class_elicitation,23,55,size,Michael is at an aquarium and sees a tuna.,fish,tuna,medium,big,positive,4712,fish,workerid_0017
free_class_elicitation,24,14,hardness,Jennifer is in her bedroom and sits on a pillow.,furniture,pillow,low,hard,positive,4049,pillows,workerid_0017
free_class_elicitation,25,34,loudness_n,Stephen is listening to a friend playing the harp.,instruments,harp,low,quiet,negative,6319,instruments,workerid_0017
free_class_elicitation,26,3,darkness,Stephanie is at a bakery and looks at the color of a chocolate cake.,cakes,chocolate cake,low,light,positive,5370,food,workerid_0017
free_class_elicitation,27,43,price,Josh is shopping for shoes and looks at a pair of sneakers.,shoes,sneakers,medium,expensive,positive,3123,sneakers,workerid_0017
free_class_elicitation,28,84,weight,John learns about the weight of a friend's new bike.,vehicles,bike,low,light,negative,2702,bikes,workerid_0017
free_class_elicitation,29,15,height,Sophie is at a zoo and looks at a penguin.,animals,penguin,low,short,negative,2870,penguins,workerid_0017
free_class_elicitation,30,70,strength,Julia is painting and tries a new oil paint.,paints,oil paint,high,weak,negative,5680,paints,workerid_0017
free_class_elicitation,31,77,temperature_h,Eric is at a restaurant and takes a taste of a chocolate fondue. ,desserts,chocolate fondue,high,hot,positive,4009,fondues,workerid_0017
free_class_elicitation,32,25,length_duration,Alicia thinks about watching her favorite movie.,entertainment,movie,high,short,negative,5078,movie lengths,workerid_0017
free_class_elicitation,33,39,loudness_n,Simon is at a lake and hears the sound of a sailboat.,boats,sailboat,medium,loud,positive,3704,sailboats,workerid_0017
free_class_elicitation,34,61,speed,Melinda wants to cook dinner and considers using a crockpot.,cookware,crockpot,low,quick,positive,8960,meals in the crockpot,workerid_0017
free_class_elicitation,35,62,speed_f,Natalia sees a car on the highway.,vehicles,car,medium,fast,positive,2960,cars,workerid_0017
free_class_elicitation,36,36,loudness_n,Monica is planning to move and reads about a nearby town.,places,town,medium,quiet,negative,13127,town noises,workerid_0017
free_class_elicitation,1,64,speed,Alexander is at a friend's house and sees their pet turtle come towards them.,pets,turtle,low,slow,negative,28887,animals,workerid_0018
free_class_elicitation,2,90,width,Josh is attempting to move furniture through the back door of his house.,doorways,back door,low,narrow,negative,17615,places in the house.,workerid_0018
free_class_elicitation,3,15,height,Lucas is at a zoo and looks at a penguin.,animals,penguin,low,short,negative,67767,animals,workerid_0018
free_class_elicitation,4,5,darkness,Gabriel is writing with a pencil and notices the color of the script.,writing utensils,pencil,low,dark,negative,17408,pencils,workerid_0018
free_class_elicitation,5,13,hardness,Cameron is at a hardware store and picks up a piece of cotton.,materials,cotton,low,soft,negative,13744,materials.,workerid_0018
free_class_elicitation,6,33,loudness_n,Daniel is taking a walk in a park and hears the cry of a finch.,birds,finch,low,quiet,negative,51927,species of birds.,workerid_0018
free_class_elicitation,7,40,loudness,Tanya wants to play music and tries out an ukelele.,guitars,ukelele,low,loud,positive,51800,instruments.,workerid_0018
free_class_elicitation,8,89,width,Jennifer is walking on a country lane.,roads,country lane,low,wide,positive,12231,lanes,workerid_0018
free_class_elicitation,9,6,darkness,Laura is creating a flower bouquet and picks out a dahlia.,flowers,dahlia,low,light,positive,19000,flowers,workerid_0018
free_class_elicitation,10,21,length_duration,Anthony is at a pet store and notices the length of a chihuahua.,dogs,chihuahua,low,long,positive,20472,dogs,workerid_0018
free_class_elicitation,11,29,loudness,Kim is listening to a choral concert.,concerts,choral concert,low,loud,positive,15936,choral concert,workerid_0018
free_class_elicitation,12,44,price,Natalia is shopping for spices and looks at salt.,spices,salt,low,expensive,positive,91976,spices,workerid_0018
free_class_elicitation,13,10,hardness,Eric is eating a piece of chocolate.,candies,piece of chocolate,medium,soft,negative,56855,chocolate,workerid_0018
free_class_elicitation,14,76,temperature_h,Robert is spending his Saturday at a shopping mall.,places,shopping mall,medium,cold,negative,71040,places,workerid_0018
free_class_elicitation,15,74,temperature,Maya steps outside on a day in fall.,seasons,fall,medium,cold,negative,101639,falls,workerid_0018
free_class_elicitation,16,85,weight,John is at a grocery store and picks up a orange.,fruit,orange,medium,light,negative,14192,oranges,workerid_0018
free_class_elicitation,17,50,price,Julia is considering different places for dinner and looks at the menu of a Korean restaurant.,restaurants,Korean restaurant,medium,cheap,negative,73488,Korean restaurants,workerid_0018
free_class_elicitation,18,63,speed_f,Tom is travelling on his friend's new sailboat.,boats,sailboat,medium,slow,negative,41392,sailboats,workerid_0018
free_class_elicitation,19,24,length_duration,Charles sees a friend driving a pick-up truck.,vehicles,pick-up truck,medium,long,positive,15863,trucks,workerid_0018
free_class_elicitation,20,1,darkness,Kim is going for a walk and notices the color of a parrot.,birds,parrot,medium,light,positive,7831,parrots,workerid_0018
free_class_elicitation,21,20,height,Jasmine is walking in a botanical garden and sees an alpine tree.,trees,alpine tree,medium,tall,positive,13295,alpine trees,workerid_0018
free_class_elicitation,22,73,temperature_h,Simon takes the first sip from a juice.,drinks,juice,medium,hot,positive,55383,juice,workerid_0018
free_class_elicitation,23,51,size,Mika is at a gardening store and looks at a bush.,plants,bush,medium,big,positive,15255,bushes,workerid_0018
free_class_elicitation,24,75,temperature_h,Kathleen is in her kitchen and puts her hand in the pantry.,locations,pantry,medium,warm,positive,17951,pantries,workerid_0018
free_class_elicitation,25,87,width,Melinda is driving on a highway.,roads,highway,high,narrow,negative,49423,highways,workerid_0018
free_class_elicitation,26,77,temperature_h,Lee is at a restaurant and takes a taste of a chocolate fondue. ,desserts,chocolate fondue,high,cold,negative,65383,chocolate,workerid_0018
free_class_elicitation,27,72,temperature,Greg takes the first bite of his soup.,food,soup,high,cold,negative,40664,soups,workerid_0018
free_class_elicitation,28,27,length_duration,Claire looks up information about an upcoming triathlon race.,races,triathlon race,high,short,negative,10879,races,workerid_0018
free_class_elicitation,29,67,strength,Sophie watches an adult lift up a box.,people,adult,high,weak,negative,116288,adults,workerid_0018
free_class_elicitation,30,46,price,William is clothing shopping and looks at a suit.,clothes,suit,high,cheap,negative,37487,suits,workerid_0018
free_class_elicitation,31,62,speed_f,David sees a motorcycle on the highway.,vehicles,motorcycle,high,fast,positive,9775,motorcycles,workerid_0018
free_class_elicitation,32,86,width,Stephanie is in a forest and sees a bear den.,dens,bear den,high,wide,positive,8384,bear den,workerid_0018
free_class_elicitation,33,30,loudness_n,Veronica meets a friend at a party.,venue,party,high,noisy,positive,5696,parties,workerid_0018
free_class_elicitation,34,53,size,Monica is looking in an insect terrarium and sees a spider.,insects,spider,high,big,positive,9608,spiders,workerid_0018
free_class_elicitation,35,4,darkness,Angela steps outside during the day.,times of day,day,high,light,positive,10272,days,workerid_0018
free_class_elicitation,36,17,height,Stephen sees an adult.,people,adult,high,tall,positive,5600,adults,workerid_0018
free_class_elicitation,1,57,size,Lee is shopping at an appliances store and looks at a toaster. ,appliances,toaster,low,big,positive,4999,toaster,workerid_0019
free_class_elicitation,2,74,temperature,Claire steps outside on a day in fall.,seasons,fall,medium,warm,positive,9255,outside,workerid_0019
free_class_elicitation,3,40,loudness,Robert wants to play music and tries out a bass guitar.,guitars,bass guitar,high,loud,positive,7880,guitar,workerid_0019
