trial_type,trial_num,rt,stim_id,context,np,np_positiveness,adj,degree,adj_positiveness,response,workerid
free_class_elicitation,1,27194,5,Lucas is at a decoration shop and looks at a statue made of bronze.,bronze,neither-nor,expensive,price,positive,statues made of bronze,cd19c7155f8801c3c7d1c90c276594a3
free_class_elicitation,2,18445,3,Veronica steps into a room with a tile floor.,tile,positive,hard,hardness,positive,types of floors ,cd19c7155f8801c3c7d1c90c276594a3
free_class_elicitation,3,12546,4,Gabriel is at the zoo and sees a mouse.,mouse,negative,small,size,negative,rodents ,cd19c7155f8801c3c7d1c90c276594a3
free_class_elicitation,4,29662,4,Jennifer is at the zoo and watches an elephant being lifted.,elephant,positive,light,weight,negative,elephants ,cd19c7155f8801c3c7d1c90c276594a3
free_class_elicitation,5,18855,9,Sophie is in a forest and sees a cave.,cave,positive,wide,width,positive,caves ,cd19c7155f8801c3c7d1c90c276594a3
free_class_elicitation,6,19909,5,Michael is eating a marshmallow.,marshmallow,negative,soft,hardness,negative,brands of marshmallows ,cd19c7155f8801c3c7d1c90c276594a3
free_class_elicitation,7,14329,custom,Cameron is at a liquor store and wants to buy a six-pack of beer.,six-pack of beer,negative,expensive,price,positive,brands of beer,cd19c7155f8801c3c7d1c90c276594a3
free_class_elicitation,8,36268,13,Kim walks into a school auditorium.,auditorium,positive,quiet,loudness,negative,parts of the school ,cd19c7155f8801c3c7d1c90c276594a3
free_class_elicitation,9,40176,8,Daniel sees a jockey.,jockey,negative,short,height,negative,players that play a different sport,cd19c7155f8801c3c7d1c90c276594a3
free_class_elicitation,10,14689,1,Gary is at a pet store and notices the length of a chihuahua.,chihuahua,negative,short,length_duration,negative,breeds ,cd19c7155f8801c3c7d1c90c276594a3
free_class_elicitation,11,20609,3,Simon takes the first bite of his ice cream.,ice cream,negative,warm,temperature,positive,ice creams,cd19c7155f8801c3c7d1c90c276594a3
free_class_elicitation,12,23975,4,William watches a teenager lift up a box.,teenager,neither-nor,weak,strength,negative,teenagers ,cd19c7155f8801c3c7d1c90c276594a3
free_class_elicitation,13,15543,15,Monica thinks about reading her favorite story.,story,neither-nor,long,length_duration,positive,stories ,cd19c7155f8801c3c7d1c90c276594a3
free_class_elicitation,14,14093,11,Charles walks by a courtyard and hears a dog.,dog,neither-nor,loud,loudness,positive,dogs ,cd19c7155f8801c3c7d1c90c276594a3
free_class_elicitation,15,9711,7,Stephanie lifts up a baby.,baby,negative,heavy,weight,positive,babies ,cd19c7155f8801c3c7d1c90c276594a3
free_class_elicitation,16,13086,3,Josh is hearing about the thunderstorm that is heading towards them.,thunderstorm,neither-nor,weak,strength,negative,storms ,cd19c7155f8801c3c7d1c90c276594a3
free_class_elicitation,17,19547,9,Anthony is going for a walk and notices the color of a seagull.,seagull,positive,dark,darkness,negative,seagulls ,cd19c7155f8801c3c7d1c90c276594a3
free_class_elicitation,18,23299,2,Alexander is driving on a downtown street.,downtown street,neither-nor,narrow,width,negative,streets ,cd19c7155f8801c3c7d1c90c276594a3
free_class_elicitation,19,16616,13,Kim steps outside during the day.,day,positive,light,darkness,positive,places ,cd19c7155f8801c3c7d1c90c276594a3
free_class_elicitation,20,18734,1,Tom is at the zoo and watches a cheetah move.,cheetah,positive,quick,speed,positive,animals at the zoo,cd19c7155f8801c3c7d1c90c276594a3
free_class_elicitation,21,9538,6,Natalia is at a zoo and looks at a giraffe.,giraffe,positive,short,height,negative,giraffes ,cd19c7155f8801c3c7d1c90c276594a3
free_class_elicitation,22,13597,14,Claire steps outside on a day in fall.,fall,neither-nor,warm,temperature,positive,days in fall ,cd19c7155f8801c3c7d1c90c276594a3
free_class_elicitation,23,12258,11,Julia is in the park and sees a jogger.,jogger,neither-nor,slow,speed,negative,joggers in the park ,cd19c7155f8801c3c7d1c90c276594a3
free_class_elicitation,24,12661,5,Angela is at a gardening store and looks at a flower.,flower,negative,big,size,positive,types of flowers ,cd19c7155f8801c3c7d1c90c276594a3
free_class_elicitation,1,9311,1,Maya is at the zoo and watches a cheetah move.,cheetah,positive,quick,speed,positive,animals,8c9dfdd0f0b931d9ce63ddec0e73127a
free_class_elicitation,2,6580,1,Alexander is at a pet store and notices the length of a chihuahua.,chihuahua,negative,short,length_duration,negative,dogs,8c9dfdd0f0b931d9ce63ddec0e73127a
free_class_elicitation,3,7332,11,William is in the park and sees a walker.,walker,negative,quick,speed,positive,walkers,8c9dfdd0f0b931d9ce63ddec0e73127a
free_class_elicitation,4,7399,8,Kathleen sees a basketball player.,basketball player,positive,short,height,negative,basketball players,8c9dfdd0f0b931d9ce63ddec0e73127a
free_class_elicitation,5,6170,4,Gary is at the zoo and sees a mouse.,mouse,negative,big,size,positive,mice,8c9dfdd0f0b931d9ce63ddec0e73127a
free_class_elicitation,6,7973,3,Tom is hearing about the hurricane that is heading towards them.,hurricane,positive,strong,strength,positive,storms,8c9dfdd0f0b931d9ce63ddec0e73127a
free_class_elicitation,7,9290,custom,Veronica is at a liquor store and wants to buy a bottle of top-shelf liquor.,bottle of top-shelf liquor,positive,expensive,price,positive,liquors,8c9dfdd0f0b931d9ce63ddec0e73127a
free_class_elicitation,8,9624,4,David watches a teenager lift up a box.,teenager,neither-nor,strong,strength,positive,teenagers,8c9dfdd0f0b931d9ce63ddec0e73127a
free_class_elicitation,9,4815,6,Michelle is at a zoo and looks at a bird.,bird,negative,tall,height,positive,birds,8c9dfdd0f0b931d9ce63ddec0e73127a
free_class_elicitation,10,7069,9,Kim is in a forest and sees a cavern.,cavern,neither-nor,narrow,width,negative,caverns,8c9dfdd0f0b931d9ce63ddec0e73127a
free_class_elicitation,11,5746,11,Jasmine walks by a courtyard and hears a donkey.,donkey,positive,quiet,loudness,negative,donkeys,8c9dfdd0f0b931d9ce63ddec0e73127a
free_class_elicitation,12,9665,4,Sophie is at the zoo and watches a dog being lifted.,dog,neither-nor,light,weight,negative,animals,8c9dfdd0f0b931d9ce63ddec0e73127a
free_class_elicitation,13,7926,14,Kim steps outside on a day in winter.,winter,negative,cold,temperature,negative,days,8c9dfdd0f0b931d9ce63ddec0e73127a
free_class_elicitation,14,8509,13,Lee walks into a school study hall.,study hall,negative,quiet,loudness,negative,rooms,8c9dfdd0f0b931d9ce63ddec0e73127a
free_class_elicitation,15,7792,5,Mika is eating a piece of chocolate.,piece of chocolate,neither-nor,hard,hardness,positive,candies,8c9dfdd0f0b931d9ce63ddec0e73127a
free_class_elicitation,16,4533,2,Simon is driving on a side road.,side road,negative,wide,width,positive,roads,8c9dfdd0f0b931d9ce63ddec0e73127a
free_class_elicitation,17,5224,3,Julia takes the first bite of her soup.,soup,positive,cold,temperature,negative,soups,8c9dfdd0f0b931d9ce63ddec0e73127a
free_class_elicitation,18,6452,5,Jennifer is at a gardening store and looks at a bush.,bush,neither-nor,big,size,positive,bushes,8c9dfdd0f0b931d9ce63ddec0e73127a
free_class_elicitation,19,6748,3,Tanya steps into a room with a tile floor.,tile,positive,soft,hardness,negative,flooring,8c9dfdd0f0b931d9ce63ddec0e73127a
free_class_elicitation,20,5825,7,Greg lifts up a kid.,kid,neither-nor,light,weight,negative,children,8c9dfdd0f0b931d9ce63ddec0e73127a
free_class_elicitation,21,6659,9,Josh is going for a walk and notices the color of a parrot.,parrot,neither-nor,light,darkness,positive,birds,8c9dfdd0f0b931d9ce63ddec0e73127a
free_class_elicitation,22,4208,15,Alicia thinks about reading her favorite poem.,poem,negative,short,length_duration,negative,poems,8c9dfdd0f0b931d9ce63ddec0e73127a
free_class_elicitation,23,11280,5,Melinda is at a decoration shop and looks at a statue made of platinum.,platinum,positive,expensive,price,positive,statues,8c9dfdd0f0b931d9ce63ddec0e73127a
free_class_elicitation,24,9508,13,Stephanie steps outside during the dusk.,dusk,neither-nor,dark,darkness,negative,areas,8c9dfdd0f0b931d9ce63ddec0e73127a
free_class_elicitation,1,16665,13,Monica walks into a school study hall.,study hall,negative,quiet,loudness,negative,students,302532228db0913a580210d922c36531
free_class_elicitation,2,14805,1,Simon is at the zoo and watches a cheetah move.,cheetah,positive,slow,speed,negative,animals,302532228db0913a580210d922c36531
free_class_elicitation,3,9299,4,Gabriel is at the zoo and sees an elephant.,elephant,positive,small,size,negative,animals,302532228db0913a580210d922c36531
free_class_elicitation,4,16321,14,Laura steps outside on a day in winter.,winter,negative,cold,temperature,negative,weathers,302532228db0913a580210d922c36531
free_class_elicitation,5,8414,11,Charles is in the park and sees a runner.,runner,positive,quick,speed,positive,runners,302532228db0913a580210d922c36531
free_class_elicitation,6,6496,5,Jennifer is eating a jolly rancher.,jolly rancher,positive,hard,hardness,positive,candy,302532228db0913a580210d922c36531
free_class_elicitation,7,8295,5,Kim is at a gardening store and looks at a bush.,bush,neither-nor,big,size,positive,bushes,302532228db0913a580210d922c36531
free_class_elicitation,8,8587,3,Jasmine steps into a room with a wood floor.,wood,neither-nor,soft,hardness,negative,wood floors,302532228db0913a580210d922c36531
free_class_elicitation,9,5887,13,Veronica steps outside during the day.,day,positive,light,darkness,positive,days,302532228db0913a580210d922c36531
free_class_elicitation,10,6645,7,Kim lifts up a kid.,kid,neither-nor,light,weight,negative,kids,302532228db0913a580210d922c36531
free_class_elicitation,11,8941,3,Lee takes the first bite of his salad.,salad,neither-nor,cold,temperature,negative,salads,302532228db0913a580210d922c36531
free_class_elicitation,12,10275,4,Maya watches a child lift up a box.,child,negative,strong,strength,positive,children,302532228db0913a580210d922c36531
free_class_elicitation,13,4050,11,William walks by a courtyard and hears a dog.,dog,neither-nor,quiet,loudness,negative,dogs,302532228db0913a580210d922c36531
free_class_elicitation,14,10184,2,Sophie is driving on a downtown street.,downtown street,neither-nor,wide,width,positive,streets,302532228db0913a580210d922c36531
free_class_elicitation,15,280542,6,Alicia is at a zoo and looks at a bird.,bird,negative,short,height,negative,bird,302532228db0913a580210d922c36531
free_class_elicitation,16,9480,15,Melinda thinks about reading her favorite poem.,poem,negative,short,length_duration,negative,poem,302532228db0913a580210d922c36531
free_class_elicitation,17,5932,8,Julia sees a jockey.,jockey,negative,tall,height,positive,jockies,302532228db0913a580210d922c36531
free_class_elicitation,18,8242,9,Alexander is going for a walk and notices the color of a seagull.,seagull,positive,dark,darkness,negative,saegull,302532228db0913a580210d922c36531
free_class_elicitation,19,18924,5,Stephanie is at a decoration shop and looks at a statue made of plastic.,plastic,negative,expensive,price,positive,statues,302532228db0913a580210d922c36531
free_class_elicitation,20,13215,3,Greg is hearing about the rain that is heading towards them.,rain,negative,strong,strength,positive,rain,302532228db0913a580210d922c36531
free_class_elicitation,21,21585,custom,John is at a liquor store and wants to buy a bottle of top-shelf liquor.,bottle of top-shelf liquor,positive,cheap,price,negative,liquors,302532228db0913a580210d922c36531
free_class_elicitation,22,10950,9,Angela is in a forest and sees a cavern.,cavern,neither-nor,wide,width,positive,caves,302532228db0913a580210d922c36531
free_class_elicitation,23,6360,1,Stephen is at a pet store and notices the length of a dachshund.,dachshund,positive,long,length_duration,positive,dogs,302532228db0913a580210d922c36531
free_class_elicitation,24,6832,4,Claire is at the zoo and watches a dog being lifted.,dog,neither-nor,heavy,weight,positive,dogs,302532228db0913a580210d922c36531
free_class_elicitation,1,8963,7,William lifts up a kid.,kid,neither-nor,heavy,weight,positive,kids,80eabd8d2b329ef481629d9ada20e415
free_class_elicitation,2,18437,1,Jennifer is at a pet store and notices the length of a dachshund.,dachshund,positive,long,length_duration,positive,dachshunds,80eabd8d2b329ef481629d9ada20e415
free_class_elicitation,3,11232,14,Jasmine steps outside on a day in summer.,summer,positive,warm,temperature,positive,seasons,80eabd8d2b329ef481629d9ada20e415
free_class_elicitation,4,17193,11,Kathleen walks by a courtyard and hears a dog.,dog,neither-nor,loud,loudness,positive,sounds in the area,80eabd8d2b329ef481629d9ada20e415
free_class_elicitation,5,7689,3,Eric is hearing about the hurricane that is heading towards them.,hurricane,positive,weak,strength,negative,other hurricanes,80eabd8d2b329ef481629d9ada20e415
free_class_elicitation,6,14594,13,Tanya walks into a school classroom.,classroom,neither-nor,quiet,loudness,negative,other locations,80eabd8d2b329ef481629d9ada20e415
free_class_elicitation,7,28255,3,Alicia steps into a room with a tile floor.,tile,positive,soft,hardness,negative,floors,80eabd8d2b329ef481629d9ada20e415
free_class_elicitation,8,7161,9,Angela is going for a walk and notices the color of a crow.,crow,negative,dark,darkness,negative,birds,80eabd8d2b329ef481629d9ada20e415
free_class_elicitation,9,15957,4,Melinda watches a teenager lift up a box.,teenager,neither-nor,weak,strength,negative,teenagers,80eabd8d2b329ef481629d9ada20e415
free_class_elicitation,10,13401,8,Michael sees a jockey.,jockey,negative,tall,height,positive,jockies,80eabd8d2b329ef481629d9ada20e415
free_class_elicitation,11,11081,5,Kim is at a gardening store and looks at a flower.,flower,negative,small,size,negative,flowers,80eabd8d2b329ef481629d9ada20e415
free_class_elicitation,12,4578,15,Monica thinks about reading her favorite poem.,poem,negative,short,length_duration,negative,poems,80eabd8d2b329ef481629d9ada20e415
free_class_elicitation,13,13445,5,Maya is at a decoration shop and looks at a statue made of platinum.,platinum,positive,expensive,price,positive,things money can buy,80eabd8d2b329ef481629d9ada20e415
free_class_elicitation,14,7352,4,Greg is at the zoo and watches a fish being lifted.,fish,negative,heavy,weight,positive,fishes,80eabd8d2b329ef481629d9ada20e415
free_class_elicitation,15,7350,2,Kim is driving on a side road.,side road,negative,wide,width,positive,roads,80eabd8d2b329ef481629d9ada20e415
free_class_elicitation,16,9497,13,Sophie steps outside during the day.,day,positive,light,darkness,positive,locations,80eabd8d2b329ef481629d9ada20e415
free_class_elicitation,17,6590,5,Michelle is eating a jolly rancher.,jolly rancher,positive,soft,hardness,negative,food,80eabd8d2b329ef481629d9ada20e415
free_class_elicitation,18,6963,9,Gabriel is in a forest and sees a cavern.,cavern,neither-nor,wide,width,positive,caverns,80eabd8d2b329ef481629d9ada20e415
free_class_elicitation,19,4854,3,Claire takes the first bite of her ice cream.,ice cream,negative,cold,temperature,negative,food,80eabd8d2b329ef481629d9ada20e415
free_class_elicitation,20,79188,1,Daniel is at the zoo and watches an elephant move.,elephant,neither-nor,quick,speed,positive,elephants,80eabd8d2b329ef481629d9ada20e415
free_class_elicitation,21,3701,4,Anthony is at the zoo and sees a monkey.,monkey,neither-nor,small,size,negative,monkies,80eabd8d2b329ef481629d9ada20e415
free_class_elicitation,22,6220,11,Robert is in the park and sees a walker.,walker,negative,quick,speed,positive,walkers,80eabd8d2b329ef481629d9ada20e415
free_class_elicitation,23,19161,6,Veronica is at a zoo and looks at a giraffe.,giraffe,positive,short,height,negative,giraffes,80eabd8d2b329ef481629d9ada20e415
free_class_elicitation,24,8377,custom,Alexander is at a liquor store and wants to buy a bottle of wine.,bottle of wine,neither-nor,cheap,price,negative,wines,80eabd8d2b329ef481629d9ada20e415
free_class_elicitation,1,22438,1,Greg is at a pet store and notices the length of a bassett hound.,bassett hound,neither-nor,long,length_duration,positive,stories,5484588b7bb52509c75b7c0e0707669e
free_class_elicitation,2,9597,5,Kim is at a decoration shop and looks at a statue made of bronze.,bronze,neither-nor,expensive,price,positive,phones,5484588b7bb52509c75b7c0e0707669e
free_class_elicitation,3,5955,11,Veronica walks by a courtyard and hears a donkey.,donkey,positive,quiet,loudness,negative,motors,5484588b7bb52509c75b7c0e0707669e
free_class_elicitation,4,4967,2,Gabriel is driving on a side road.,side road,negative,narrow,width,negative,doors,5484588b7bb52509c75b7c0e0707669e
free_class_elicitation,5,18521,custom,Laura is at a liquor store and wants to buy a bottle of wine.,bottle of wine,neither-nor,cheap,price,negative,materials,5484588b7bb52509c75b7c0e0707669e
free_class_elicitation,6,8066,11,Cameron is in the park and sees a jogger.,jogger,neither-nor,quick,speed,positive,cars,5484588b7bb52509c75b7c0e0707669e
free_class_elicitation,7,7559,4,Mika is at the zoo and watches a dog being lifted.,dog,neither-nor,heavy,weight,positive,boxes,5484588b7bb52509c75b7c0e0707669e
free_class_elicitation,8,10492,9,Gary is in a forest and sees a fox hole.,fox hole,negative,wide,width,positive,doorways,5484588b7bb52509c75b7c0e0707669e
free_class_elicitation,9,31342,5,Angela is at a gardening store and looks at a tree.,tree,positive,big,size,positive,sofas,5484588b7bb52509c75b7c0e0707669e
free_class_elicitation,10,12586,7,Maya lifts up an adult.,adult,positive,light,weight,negative,jackets,5484588b7bb52509c75b7c0e0707669e
free_class_elicitation,11,10148,13,Robert steps outside during the night.,night,negative,light,darkness,positive,areas,5484588b7bb52509c75b7c0e0707669e
free_class_elicitation,12,7177,4,David watches a child lift up a box.,child,negative,weak,strength,negative,babies,5484588b7bb52509c75b7c0e0707669e
free_class_elicitation,13,20072,3,Julia takes the first bite of her salad.,salad,neither-nor,cold,temperature,negative,glasses,5484588b7bb52509c75b7c0e0707669e
free_class_elicitation,14,16297,4,William is at the zoo and sees a mouse.,mouse,negative,big,size,positive,dogs,5484588b7bb52509c75b7c0e0707669e
free_class_elicitation,15,2931,1,Monica is at the zoo and watches an elephant move.,elephant,neither-nor,slow,speed,negative,cats,5484588b7bb52509c75b7c0e0707669e
free_class_elicitation,16,10710,6,Stephanie is at a zoo and looks at a giraffe.,giraffe,positive,tall,height,positive,towers,5484588b7bb52509c75b7c0e0707669e
free_class_elicitation,17,4604,13,Sophie walks into a school study hall.,study hall,negative,quiet,loudness,negative,rooms,5484588b7bb52509c75b7c0e0707669e
free_class_elicitation,18,10030,3,Eric is hearing about the hurricane that is heading towards them.,hurricane,positive,strong,strength,positive,motors,5484588b7bb52509c75b7c0e0707669e
free_class_elicitation,19,7196,3,Michael steps into a room with a carpet floor.,carpet,negative,soft,hardness,negative,pillows,5484588b7bb52509c75b7c0e0707669e
free_class_elicitation,20,8702,15,Anthony thinks about reading his favorite story.,story,neither-nor,short,length_duration,negative,trees,5484588b7bb52509c75b7c0e0707669e
free_class_elicitation,21,4614,5,Melinda is eating a jolly rancher.,jolly rancher,positive,hard,hardness,positive,rocks,5484588b7bb52509c75b7c0e0707669e
free_class_elicitation,22,6500,8,Daniel sees a basketball player.,basketball player,positive,short,height,negative,pants,5484588b7bb52509c75b7c0e0707669e
free_class_elicitation,23,5850,14,Charles steps outside on a day in winter.,winter,negative,warm,temperature,positive,stoves,5484588b7bb52509c75b7c0e0707669e
free_class_elicitation,24,9646,9,Claire is going for a walk and notices the color of a seagull.,seagull,positive,dark,darkness,negative,chocolates ,5484588b7bb52509c75b7c0e0707669e
free_class_elicitation,1,21217,11,Jennifer walks by a courtyard and hears a cat.,cat,negative,loud,loudness,positive,things in the courtyard,b8141494a705a35005a7e05587f1b616
free_class_elicitation,2,16961,8,William sees a jockey.,jockey,negative,tall,height,positive,other jockeys,b8141494a705a35005a7e05587f1b616
free_class_elicitation,3,11020,3,Melinda steps into a room with a wood floor.,wood,neither-nor,hard,hardness,positive,floors,b8141494a705a35005a7e05587f1b616
free_class_elicitation,4,11778,4,Stephanie watches a child lift up a box.,child,negative,weak,strength,negative,children,b8141494a705a35005a7e05587f1b616
free_class_elicitation,5,11712,9,Charles is in a forest and sees a cavern.,cavern,neither-nor,wide,width,positive,caverns,b8141494a705a35005a7e05587f1b616
free_class_elicitation,6,10614,14,Robert steps outside on a day in summer.,summer,positive,warm,temperature,positive,summer days,b8141494a705a35005a7e05587f1b616
free_class_elicitation,7,12609,1,Monica is at a pet store and notices the length of a dachshund.,dachshund,positive,long,length_duration,positive,dachshunds,b8141494a705a35005a7e05587f1b616
free_class_elicitation,8,10937,13,Alexander walks into a school study hall.,study hall,negative,quiet,loudness,negative,rooms in the school,b8141494a705a35005a7e05587f1b616
free_class_elicitation,9,10062,2,Mika is driving on a highway.,highway,positive,narrow,width,negative,highways,b8141494a705a35005a7e05587f1b616
free_class_elicitation,10,11510,7,Tom lifts up an adult.,adult,positive,heavy,weight,positive,adults,b8141494a705a35005a7e05587f1b616
free_class_elicitation,11,14858,5,Simon is at a decoration shop and looks at a statue made of bronze.,bronze,neither-nor,expensive,price,positive,statues,b8141494a705a35005a7e05587f1b616
free_class_elicitation,12,13853,4,Kim is at the zoo and sees a mouse.,mouse,negative,big,size,positive,mice,b8141494a705a35005a7e05587f1b616
free_class_elicitation,13,11728,3,Eric takes the first bite of his salad.,salad,neither-nor,cold,temperature,negative,salads,b8141494a705a35005a7e05587f1b616
free_class_elicitation,14,13612,11,Kim is in the park and sees a walker.,walker,negative,slow,speed,negative,people walking in the park,b8141494a705a35005a7e05587f1b616
free_class_elicitation,15,9941,3,Daniel is hearing about the hurricane that is heading towards them.,hurricane,positive,weak,strength,negative,hurricanes,b8141494a705a35005a7e05587f1b616
free_class_elicitation,16,9039,6,Angela is at a zoo and looks at a monkey.,monkey,neither-nor,short,height,negative,monkeys at the zoo.,b8141494a705a35005a7e05587f1b616
free_class_elicitation,17,10653,1,Tanya is at the zoo and watches a cheetah move.,cheetah,positive,quick,speed,positive,cheetahs in the zoo,b8141494a705a35005a7e05587f1b616
free_class_elicitation,18,11175,13,Gary steps outside during the night.,night,negative,dark,darkness,negative,hours of the day,b8141494a705a35005a7e05587f1b616
free_class_elicitation,19,10072,5,Maya is at a gardening store and looks at a bush.,bush,neither-nor,big,size,positive,bushes at the store,b8141494a705a35005a7e05587f1b616
free_class_elicitation,20,16618,custom,Lee is at a liquor store and wants to buy a bottle of top-shelf liquor.,bottle of top-shelf liquor,positive,cheap,price,negative,top-shelf liquors,b8141494a705a35005a7e05587f1b616
free_class_elicitation,21,10971,4,Anthony is at the zoo and watches a fish being lifted.,fish,negative,heavy,weight,positive,fish at the zoo,b8141494a705a35005a7e05587f1b616
free_class_elicitation,22,10745,15,Gabriel thinks about reading his favorite novel.,novel,positive,short,length_duration,negative,novels,b8141494a705a35005a7e05587f1b616
free_class_elicitation,23,12066,5,Alicia is eating a piece of chocolate.,piece of chocolate,neither-nor,soft,hardness,negative,chocolates,b8141494a705a35005a7e05587f1b616
free_class_elicitation,24,13794,9,David is going for a walk and notices the color of a parrot.,parrot,neither-nor,dark,darkness,negative,parrots,b8141494a705a35005a7e05587f1b616
free_class_elicitation,1,14546,custom,Maya is at a liquor store and wants to buy a six-pack of beer.,six-pack of beer,negative,cheap,price,negative,beer,1d32575eebdbc8e606a04a2f909a08a5
free_class_elicitation,2,12472,3,Kim takes the first bite of her salad.,salad,neither-nor,cold,temperature,negative,salads,1d32575eebdbc8e606a04a2f909a08a5
free_class_elicitation,3,20870,9,Tom is going for a walk and notices the color of a parrot.,parrot,neither-nor,light,darkness,positive,birds,1d32575eebdbc8e606a04a2f909a08a5
free_class_elicitation,4,18538,3,Claire steps into a room with a tile floor.,tile,positive,soft,hardness,negative,tile floors,1d32575eebdbc8e606a04a2f909a08a5
free_class_elicitation,5,14976,9,Julia is in a forest and sees a fox hole.,fox hole,negative,narrow,width,negative,fox holes,1d32575eebdbc8e606a04a2f909a08a5
free_class_elicitation,6,12958,5,Jennifer is at a gardening store and looks at a tree.,tree,positive,small,size,negative,trees.,1d32575eebdbc8e606a04a2f909a08a5
free_class_elicitation,7,15806,4,David watches a child lift up a box.,child,negative,strong,strength,positive,children.,1d32575eebdbc8e606a04a2f909a08a5
free_class_elicitation,8,11854,4,Alexander is at the zoo and watches an elephant being lifted.,elephant,positive,light,weight,negative,elephants.,1d32575eebdbc8e606a04a2f909a08a5
free_class_elicitation,9,11780,1,Lee is at the zoo and watches an elephant move.,elephant,neither-nor,quick,speed,positive,elephants,1d32575eebdbc8e606a04a2f909a08a5
free_class_elicitation,10,9746,8,Kathleen sees a jockey.,jockey,negative,short,height,negative,people,1d32575eebdbc8e606a04a2f909a08a5
free_class_elicitation,11,14018,2,Mika is driving on a highway.,highway,positive,wide,width,positive,parts of the highway,1d32575eebdbc8e606a04a2f909a08a5
free_class_elicitation,12,9780,6,Anthony is at a zoo and looks at a bird.,bird,negative,tall,height,positive,birds,1d32575eebdbc8e606a04a2f909a08a5
free_class_elicitation,13,7934,1,Alicia is at a pet store and notices the length of a chihuahua.,chihuahua,negative,short,length_duration,negative,dogs,1d32575eebdbc8e606a04a2f909a08a5
free_class_elicitation,14,8736,11,Melinda walks by a courtyard and hears a donkey.,donkey,positive,loud,loudness,positive,animals,1d32575eebdbc8e606a04a2f909a08a5
free_class_elicitation,15,12076,5,Michael is eating a piece of chocolate.,piece of chocolate,neither-nor,soft,hardness,negative,chocolate,1d32575eebdbc8e606a04a2f909a08a5
free_class_elicitation,16,12172,13,Stephanie walks into a school study hall.,study hall,negative,loud,loudness,positive,study halls,1d32575eebdbc8e606a04a2f909a08a5
free_class_elicitation,17,8268,15,Monica thinks about reading her favorite novel.,novel,positive,short,length_duration,negative,books,1d32575eebdbc8e606a04a2f909a08a5
free_class_elicitation,18,8354,4,Kim is at the zoo and sees a monkey.,monkey,neither-nor,big,size,positive,monkeys,1d32575eebdbc8e606a04a2f909a08a5
free_class_elicitation,19,12572,13,Natalia steps outside during the day.,day,positive,light,darkness,positive,days,1d32575eebdbc8e606a04a2f909a08a5
free_class_elicitation,20,8396,14,Angela steps outside on a day in fall.,fall,neither-nor,warm,temperature,positive,fall days,1d32575eebdbc8e606a04a2f909a08a5
free_class_elicitation,21,10078,5,Robert is at a decoration shop and looks at a statue made of platinum.,platinum,positive,expensive,price,positive,statues,1d32575eebdbc8e606a04a2f909a08a5
free_class_elicitation,22,31899,7,Veronica lifts up a kid.,kid,neither-nor,light,weight,negative,children,1d32575eebdbc8e606a04a2f909a08a5
free_class_elicitation,23,11759,11,Tanya is in the park and sees a jogger.,jogger,neither-nor,slow,speed,negative,joggers,1d32575eebdbc8e606a04a2f909a08a5
free_class_elicitation,24,11472,3,Michelle is hearing about the rain that is heading towards them.,rain,negative,strong,strength,positive,rain showers,1d32575eebdbc8e606a04a2f909a08a5
free_class_elicitation,1,21910,5,Monica is at a decoration shop and looks at a statue made of plastic.,plastic,negative,cheap,price,negative,decorations,aab34adfbf5a03212376be01f97bfd32
free_class_elicitation,2,10592,9,Lucas is in a forest and sees a fox hole.,fox hole,negative,narrow,width,negative,holes,aab34adfbf5a03212376be01f97bfd32
free_class_elicitation,3,12347,11,Eric walks by a courtyard and hears a cat.,cat,negative,quiet,loudness,negative,courtyards,aab34adfbf5a03212376be01f97bfd32
free_class_elicitation,4,7699,2,Robert is driving on a downtown street.,downtown street,neither-nor,narrow,width,negative,streets,aab34adfbf5a03212376be01f97bfd32
free_class_elicitation,5,7161,4,Simon is at the zoo and sees an elephant.,elephant,positive,big,size,positive,animals,aab34adfbf5a03212376be01f97bfd32
free_class_elicitation,6,9455,3,Sophie is hearing about the thunderstorm that is heading towards them.,thunderstorm,neither-nor,strong,strength,positive,storms,aab34adfbf5a03212376be01f97bfd32
free_class_elicitation,7,10761,11,Stephen is in the park and sees a runner.,runner,positive,quick,speed,positive,runners,aab34adfbf5a03212376be01f97bfd32
free_class_elicitation,8,6981,5,Kathleen is at a gardening store and looks at a flower.,flower,negative,small,size,negative,flowers,aab34adfbf5a03212376be01f97bfd32
free_class_elicitation,9,5490,1,Michelle is at the zoo and watches a cheetah move.,cheetah,positive,quick,speed,positive,animals,aab34adfbf5a03212376be01f97bfd32
free_class_elicitation,10,7923,4,Stephanie watches a teenager lift up a box.,teenager,neither-nor,strong,strength,positive,people,aab34adfbf5a03212376be01f97bfd32
free_class_elicitation,11,9324,6,Claire is at a zoo and looks at a giraffe.,giraffe,positive,short,height,negative,giraffes,aab34adfbf5a03212376be01f97bfd32
free_class_elicitation,12,6452,8,Gabriel sees a jockey.,jockey,negative,tall,height,positive,jockeys,aab34adfbf5a03212376be01f97bfd32
free_class_elicitation,13,7968,3,Gary takes the first bite of his soup.,soup,positive,cold,temperature,negative,soups,aab34adfbf5a03212376be01f97bfd32
free_class_elicitation,14,8725,15,Kim thinks about reading her favorite story.,story,neither-nor,long,length_duration,positive,stories,aab34adfbf5a03212376be01f97bfd32
free_class_elicitation,15,9248,7,Michael lifts up a kid.,kid,neither-nor,heavy,weight,positive,kids,aab34adfbf5a03212376be01f97bfd32
free_class_elicitation,16,6966,3,Laura steps into a room with a wood floor.,wood,neither-nor,soft,hardness,negative,floors,aab34adfbf5a03212376be01f97bfd32
free_class_elicitation,17,5795,4,Natalia is at the zoo and watches a fish being lifted.,fish,negative,heavy,weight,positive,fish,aab34adfbf5a03212376be01f97bfd32
free_class_elicitation,18,9691,custom,John is at a liquor store and wants to buy a bottle of wine.,bottle of wine,neither-nor,cheap,price,negative,wines,aab34adfbf5a03212376be01f97bfd32
free_class_elicitation,19,18951,13,Kim steps outside during the day.,day,positive,light,darkness,positive,environments,aab34adfbf5a03212376be01f97bfd32
free_class_elicitation,20,7357,14,Anthony steps outside on a day in summer.,summer,positive,cold,temperature,negative,summer days,aab34adfbf5a03212376be01f97bfd32
free_class_elicitation,21,7420,9,Josh is going for a walk and notices the color of a crow.,crow,negative,light,darkness,positive,crows,aab34adfbf5a03212376be01f97bfd32
free_class_elicitation,22,8284,5,Veronica is eating a marshmallow.,marshmallow,negative,hard,hardness,positive,marshmallows,aab34adfbf5a03212376be01f97bfd32
free_class_elicitation,23,9615,1,Jasmine is at a pet store and notices the length of a dachshund.,dachshund,positive,short,length_duration,negative,dogs,aab34adfbf5a03212376be01f97bfd32
free_class_elicitation,24,9421,13,Maya walks into a school classroom.,classroom,neither-nor,quiet,loudness,negative,classrooms,aab34adfbf5a03212376be01f97bfd32
free_class_elicitation,1,9751,5,Josh is at a decoration shop and looks at a statue made of bronze.,bronze,neither-nor,cheap,price,negative,statues,e5927e80fc20543641b7d15f5da5a2a3
free_class_elicitation,2,5184,4,Laura is at the zoo and sees a mouse.,mouse,negative,small,size,negative,animals,e5927e80fc20543641b7d15f5da5a2a3
free_class_elicitation,3,13113,3,Melinda is hearing about the hurricane that is heading towards them.,hurricane,positive,weak,strength,negative,hurricanes,e5927e80fc20543641b7d15f5da5a2a3
free_class_elicitation,4,9658,14,Eric steps outside on a day in summer.,summer,positive,cold,temperature,negative,days in summer,e5927e80fc20543641b7d15f5da5a2a3
free_class_elicitation,5,4796,9,Kim is in a forest and sees a cavern.,cavern,neither-nor,wide,width,positive,caverns,e5927e80fc20543641b7d15f5da5a2a3
free_class_elicitation,6,4010,custom,Claire is at a liquor store and wants to buy a six-pack of beer.,six-pack of beer,negative,cheap,price,negative,beer,e5927e80fc20543641b7d15f5da5a2a3
free_class_elicitation,7,4337,4,John is at the zoo and watches an elephant being lifted.,elephant,positive,heavy,weight,positive,animals,e5927e80fc20543641b7d15f5da5a2a3
free_class_elicitation,8,3414,6,Michael is at a zoo and looks at a bird.,bird,negative,tall,height,positive,birds,e5927e80fc20543641b7d15f5da5a2a3
free_class_elicitation,9,5538,3,Michelle takes the first bite of her ice cream.,ice cream,negative,warm,temperature,positive,ice cream,e5927e80fc20543641b7d15f5da5a2a3
free_class_elicitation,10,4332,13,Kathleen walks into a school study hall.,study hall,negative,quiet,loudness,negative,places,e5927e80fc20543641b7d15f5da5a2a3
free_class_elicitation,11,5479,13,Gary steps outside during the day.,day,positive,light,darkness,positive,places,e5927e80fc20543641b7d15f5da5a2a3
free_class_elicitation,12,4910,5,Sophie is eating a piece of chocolate.,piece of chocolate,neither-nor,hard,hardness,positive,food,e5927e80fc20543641b7d15f5da5a2a3
free_class_elicitation,13,5126,1,Daniel is at a pet store and notices the length of a chihuahua.,chihuahua,negative,long,length_duration,positive,dogs,e5927e80fc20543641b7d15f5da5a2a3
free_class_elicitation,14,6544,2,Charles is driving on a side road.,side road,negative,narrow,width,negative,roads,e5927e80fc20543641b7d15f5da5a2a3
free_class_elicitation,15,4347,1,Jennifer is at the zoo and watches a cheetah move.,cheetah,positive,slow,speed,negative,cheetahs,e5927e80fc20543641b7d15f5da5a2a3
free_class_elicitation,16,5086,7,Maya lifts up a kid.,kid,neither-nor,heavy,weight,positive,kids,e5927e80fc20543641b7d15f5da5a2a3
free_class_elicitation,17,4927,11,Mika is in the park and sees a jogger.,jogger,neither-nor,slow,speed,negative,joggers,e5927e80fc20543641b7d15f5da5a2a3
free_class_elicitation,18,5963,8,Anthony sees a basketball player.,basketball player,positive,tall,height,positive,people,e5927e80fc20543641b7d15f5da5a2a3
free_class_elicitation,19,4648,4,William watches an adult lift up a box.,adult,positive,strong,strength,positive,people,e5927e80fc20543641b7d15f5da5a2a3
free_class_elicitation,20,3978,9,Natalia is going for a walk and notices the color of a parrot.,parrot,neither-nor,dark,darkness,negative,parrots,e5927e80fc20543641b7d15f5da5a2a3
free_class_elicitation,21,3577,5,Lee is at a gardening store and looks at a bush.,bush,neither-nor,big,size,positive,bushes,e5927e80fc20543641b7d15f5da5a2a3
free_class_elicitation,22,3911,3,Stephanie steps into a room with a tile floor.,tile,positive,soft,hardness,negative,floors,e5927e80fc20543641b7d15f5da5a2a3
free_class_elicitation,23,4272,15,Gabriel thinks about reading his favorite story.,story,neither-nor,short,length_duration,negative,stories,e5927e80fc20543641b7d15f5da5a2a3
free_class_elicitation,24,5485,11,Jasmine walks by a courtyard and hears a cat.,cat,negative,loud,loudness,positive,animals,e5927e80fc20543641b7d15f5da5a2a3
free_class_elicitation,1,17511,14,Veronica steps outside on a day in summer.,summer,positive,warm,temperature,positive,days,6271248deff56192a6c60cbf11fcb399
free_class_elicitation,2,14316,11,Mika is in the park and sees a runner.,runner,positive,slow,speed,negative,runners,6271248deff56192a6c60cbf11fcb399
free_class_elicitation,3,12220,11,Michelle walks by a courtyard and hears a cat.,cat,negative,quiet,loudness,negative,cats,6271248deff56192a6c60cbf11fcb399
free_class_elicitation,4,8944,6,Greg is at a zoo and looks at a bird.,bird,negative,tall,height,positive,birds,6271248deff56192a6c60cbf11fcb399
free_class_elicitation,5,9026,4,Alexander is at the zoo and sees a monkey.,monkey,neither-nor,small,size,negative,monkeys,6271248deff56192a6c60cbf11fcb399
free_class_elicitation,6,10517,5,Cameron is eating a piece of chocolate.,piece of chocolate,neither-nor,hard,hardness,positive,chocolate,6271248deff56192a6c60cbf11fcb399
free_class_elicitation,7,15187,1,David is at the zoo and watches an elephant move.,elephant,neither-nor,quick,speed,positive,big animals,6271248deff56192a6c60cbf11fcb399
free_class_elicitation,8,9769,9,Tanya is in a forest and sees a cavern.,cavern,neither-nor,wide,width,positive,caverns,6271248deff56192a6c60cbf11fcb399
free_class_elicitation,9,10116,1,Maya is at a pet store and notices the length of a dachshund.,dachshund,positive,long,length_duration,positive,dogs,6271248deff56192a6c60cbf11fcb399
free_class_elicitation,10,6662,15,John thinks about reading his favorite story.,story,neither-nor,long,length_duration,positive,stories,6271248deff56192a6c60cbf11fcb399
free_class_elicitation,11,7811,3,Tom takes the first bite of his soup.,soup,positive,cold,temperature,negative,soups,6271248deff56192a6c60cbf11fcb399
free_class_elicitation,12,11807,13,Kim walks into a school study hall.,study hall,negative,quiet,loudness,negative,classes,6271248deff56192a6c60cbf11fcb399
free_class_elicitation,13,10296,4,Jennifer is at the zoo and watches a fish being lifted.,fish,negative,light,weight,negative,fishes,6271248deff56192a6c60cbf11fcb399
free_class_elicitation,14,6753,5,Kathleen is at a gardening store and looks at a tree.,tree,positive,small,size,negative,trees,6271248deff56192a6c60cbf11fcb399
free_class_elicitation,15,9292,custom,Robert is at a liquor store and wants to buy a six-pack of beer.,six-pack of beer,negative,expensive,price,positive,beer,6271248deff56192a6c60cbf11fcb399
free_class_elicitation,16,5681,8,Monica sees a basketball player.,basketball player,positive,tall,height,positive,people,6271248deff56192a6c60cbf11fcb399
free_class_elicitation,17,5673,9,Stephanie is going for a walk and notices the color of a parrot.,parrot,neither-nor,dark,darkness,negative,parrots,6271248deff56192a6c60cbf11fcb399
free_class_elicitation,18,9203,5,Julia is at a decoration shop and looks at a statue made of bronze.,bronze,neither-nor,cheap,price,negative,bronze statues,6271248deff56192a6c60cbf11fcb399
free_class_elicitation,19,7087,3,Gabriel steps into a room with a carpet floor.,carpet,negative,hard,hardness,positive,carpets,6271248deff56192a6c60cbf11fcb399
free_class_elicitation,20,5696,7,Michael lifts up an adult.,adult,positive,light,weight,negative,adults,6271248deff56192a6c60cbf11fcb399
free_class_elicitation,21,5678,13,Jasmine steps outside during the night.,night,negative,light,darkness,positive,nights,6271248deff56192a6c60cbf11fcb399
free_class_elicitation,22,8229,4,Angela watches a child lift up a box.,child,negative,weak,strength,negative,humans,6271248deff56192a6c60cbf11fcb399
free_class_elicitation,23,7269,2,Lee is driving on a highway.,highway,positive,wide,width,positive,highways,6271248deff56192a6c60cbf11fcb399
free_class_elicitation,24,10084,3,Josh is hearing about the thunderstorm that is heading towards them.,thunderstorm,neither-nor,weak,strength,negative,thunderstorms,6271248deff56192a6c60cbf11fcb399
free_class_elicitation,1,24946,1,John is at a pet store and notices the length of a bassett hound.,bassett hound,neither-nor,short,length_duration,negative,dogs,3949a9872c687a8e8967131c062f6515
free_class_elicitation,2,14954,15,Tom thinks about reading his favorite poem.,poem,negative,short,length_duration,negative,poems,3949a9872c687a8e8967131c062f6515
free_class_elicitation,3,13206,6,Cameron is at a zoo and looks at a monkey.,monkey,neither-nor,tall,height,positive,monkeys,3949a9872c687a8e8967131c062f6515
free_class_elicitation,4,28891,8,Tanya sees a jockey.,jockey,negative,short,height,negative,men,3949a9872c687a8e8967131c062f6515
free_class_elicitation,5,10068,3,Monica steps into a room with a tile floor.,tile,positive,hard,hardness,positive,floors,3949a9872c687a8e8967131c062f6515
free_class_elicitation,6,6043,3,Kim takes the first bite of her salad.,salad,neither-nor,cold,temperature,negative,food,3949a9872c687a8e8967131c062f6515
free_class_elicitation,7,11235,4,Julia watches an adult lift up a box.,adult,positive,strong,strength,positive,men,3949a9872c687a8e8967131c062f6515
free_class_elicitation,8,12402,5,Michelle is at a gardening store and looks at a flower.,flower,negative,small,size,negative,flowers,3949a9872c687a8e8967131c062f6515
free_class_elicitation,9,12411,9,Anthony is going for a walk and notices the color of a seagull.,seagull,positive,light,darkness,positive,birds,3949a9872c687a8e8967131c062f6515
free_class_elicitation,10,36019,11,William is in the park and sees a jogger.,jogger,neither-nor,quick,speed,positive,joggers,3949a9872c687a8e8967131c062f6515
free_class_elicitation,11,7605,13,Daniel walks into a school study hall.,study hall,negative,loud,loudness,positive,study areas,3949a9872c687a8e8967131c062f6515
free_class_elicitation,12,11216,5,Alicia is at a decoration shop and looks at a statue made of plastic.,plastic,negative,expensive,price,positive,plastic items,3949a9872c687a8e8967131c062f6515
free_class_elicitation,13,7886,4,Gary is at the zoo and sees an elephant.,elephant,positive,big,size,positive,animals,3949a9872c687a8e8967131c062f6515
free_class_elicitation,14,7346,1,Melinda is at the zoo and watches a cheetah move.,cheetah,positive,slow,speed,negative,cheetahs,3949a9872c687a8e8967131c062f6515
free_class_elicitation,15,9770,3,Natalia is hearing about the hurricane that is heading towards them.,hurricane,positive,weak,strength,negative,hurricanes,3949a9872c687a8e8967131c062f6515
free_class_elicitation,16,7059,custom,Greg is at a liquor store and wants to buy a bottle of wine.,bottle of wine,neither-nor,expensive,price,positive,bottles of wine,3949a9872c687a8e8967131c062f6515
free_class_elicitation,17,10009,14,Lee steps outside on a day in fall.,fall,neither-nor,warm,temperature,positive,fall days,3949a9872c687a8e8967131c062f6515
free_class_elicitation,18,12200,4,Mika is at the zoo and watches an elephant being lifted.,elephant,positive,light,weight,negative,elephants,3949a9872c687a8e8967131c062f6515
free_class_elicitation,19,6581,7,Lucas lifts up a baby.,baby,negative,light,weight,negative,babies,3949a9872c687a8e8967131c062f6515
free_class_elicitation,20,15730,13,Kim steps outside during the night.,night,negative,light,darkness,positive,areas at night,3949a9872c687a8e8967131c062f6515
free_class_elicitation,21,10602,5,Michael is eating a piece of chocolate.,piece of chocolate,neither-nor,soft,hardness,negative,chocolate,3949a9872c687a8e8967131c062f6515
free_class_elicitation,22,8197,9,Sophie is in a forest and sees a cavern.,cavern,neither-nor,narrow,width,negative,areas,3949a9872c687a8e8967131c062f6515
free_class_elicitation,23,6690,2,Alexander is driving on a highway.,highway,positive,narrow,width,negative,roads,3949a9872c687a8e8967131c062f6515
free_class_elicitation,24,4164,11,Jennifer walks by a courtyard and hears a cat.,cat,negative,loud,loudness,positive,cats,3949a9872c687a8e8967131c062f6515
free_class_elicitation,1,14815,5,Lucas is eating a marshmallow.,marshmallow,negative,soft,hardness,negative,foods,ddc47dbddce56062e4d441fc07c6749a
free_class_elicitation,2,10817,1,Jasmine is at a pet store and notices the length of a bassett hound.,bassett hound,neither-nor,short,length_duration,negative,dogs,ddc47dbddce56062e4d441fc07c6749a
free_class_elicitation,3,14151,5,Jennifer is at a decoration shop and looks at a statue made of platinum.,platinum,positive,cheap,price,negative,statues,ddc47dbddce56062e4d441fc07c6749a
free_class_elicitation,4,9383,11,Gary is in the park and sees a jogger.,jogger,neither-nor,quick,speed,positive,joggers,ddc47dbddce56062e4d441fc07c6749a
free_class_elicitation,5,36565,3,Monica steps into a room with a tile floor.,tile,positive,hard,hardness,positive,floor,ddc47dbddce56062e4d441fc07c6749a
free_class_elicitation,6,9110,5,Laura is at a gardening store and looks at a bush.,bush,neither-nor,small,size,negative,brushes,ddc47dbddce56062e4d441fc07c6749a
free_class_elicitation,7,7798,2,Daniel is driving on a highway.,highway,positive,narrow,width,negative,highways,ddc47dbddce56062e4d441fc07c6749a
free_class_elicitation,8,11760,4,Michael watches a child lift up a box.,child,negative,strong,strength,positive,children,ddc47dbddce56062e4d441fc07c6749a
free_class_elicitation,9,18805,8,Mika sees a basketball player.,basketball player,positive,tall,height,positive,basketball players,ddc47dbddce56062e4d441fc07c6749a
free_class_elicitation,10,9478,15,Natalia thinks about reading her favorite story.,story,neither-nor,short,length_duration,negative,stories,ddc47dbddce56062e4d441fc07c6749a
free_class_elicitation,11,7714,9,Melinda is in a forest and sees a cave.,cave,positive,narrow,width,negative,caves,ddc47dbddce56062e4d441fc07c6749a
free_class_elicitation,12,6898,4,Claire is at the zoo and watches a fish being lifted.,fish,negative,heavy,weight,positive,fishes,ddc47dbddce56062e4d441fc07c6749a
free_class_elicitation,13,8479,6,Kathleen is at a zoo and looks at a monkey.,monkey,neither-nor,tall,height,positive,monkeys,ddc47dbddce56062e4d441fc07c6749a
free_class_elicitation,14,5864,4,Robert is at the zoo and sees an elephant.,elephant,positive,big,size,positive,elephants,ddc47dbddce56062e4d441fc07c6749a
free_class_elicitation,15,4561,11,Tanya walks by a courtyard and hears a cat.,cat,negative,quiet,loudness,negative,cats,ddc47dbddce56062e4d441fc07c6749a
free_class_elicitation,16,7832,3,Maya takes the first bite of her ice cream.,ice cream,negative,cold,temperature,negative,ice creams,ddc47dbddce56062e4d441fc07c6749a
free_class_elicitation,17,8825,9,Lee is going for a walk and notices the color of a parrot.,parrot,neither-nor,light,darkness,positive,parrots,ddc47dbddce56062e4d441fc07c6749a
free_class_elicitation,18,14229,13,Eric steps outside during the night.,night,negative,light,darkness,positive,nights,ddc47dbddce56062e4d441fc07c6749a
free_class_elicitation,19,9838,7,Julia lifts up an adult.,adult,positive,heavy,weight,positive,adults,ddc47dbddce56062e4d441fc07c6749a
free_class_elicitation,20,8350,14,Sophie steps outside on a day in summer.,summer,positive,cold,temperature,negative,summer days,ddc47dbddce56062e4d441fc07c6749a
free_class_elicitation,21,10417,3,Stephanie is hearing about the thunderstorm that is heading towards them.,thunderstorm,neither-nor,strong,strength,positive,thunderstorms,ddc47dbddce56062e4d441fc07c6749a
free_class_elicitation,22,6641,1,Tom is at the zoo and watches a sloth move.,sloth,negative,quick,speed,positive,sloths,ddc47dbddce56062e4d441fc07c6749a
free_class_elicitation,23,9483,13,Alicia walks into a school study hall.,study hall,negative,quiet,loudness,negative,study hall,ddc47dbddce56062e4d441fc07c6749a
free_class_elicitation,24,6621,custom,Michelle is at a liquor store and wants to buy a bottle of wine.,bottle of wine,neither-nor,cheap,price,negative,wine,ddc47dbddce56062e4d441fc07c6749a
free_class_elicitation,1,8618,15,Michelle thinks about reading her favorite poem.,poem,negative,short,length_duration,negative,poems,6f3423dc38aad583b36cdf1b0882b31a
free_class_elicitation,2,7919,5,Jasmine is at a gardening store and looks at a bush.,bush,neither-nor,big,size,positive,bushes,6f3423dc38aad583b36cdf1b0882b31a
free_class_elicitation,3,4317,9,Alexander is in a forest and sees a cave.,cave,positive,narrow,width,negative,caves,6f3423dc38aad583b36cdf1b0882b31a
free_class_elicitation,4,9932,11,Lucas is in the park and sees a walker.,walker,negative,quick,speed,positive,walkers,6f3423dc38aad583b36cdf1b0882b31a
free_class_elicitation,5,7731,4,Kim is at the zoo and watches an elephant being lifted.,elephant,positive,heavy,weight,positive,elephants,6f3423dc38aad583b36cdf1b0882b31a
free_class_elicitation,6,6443,13,Anthony walks into a school auditorium.,auditorium,positive,quiet,loudness,negative,schools,6f3423dc38aad583b36cdf1b0882b31a
free_class_elicitation,7,5507,4,Stephen is at the zoo and sees a monkey.,monkey,neither-nor,big,size,positive,monkeys,6f3423dc38aad583b36cdf1b0882b31a
free_class_elicitation,8,12007,custom,Laura is at a liquor store and wants to buy a bottle of wine.,bottle of wine,neither-nor,expensive,price,positive,bottles of wine,6f3423dc38aad583b36cdf1b0882b31a
free_class_elicitation,9,8209,4,Robert watches a child lift up a box.,child,negative,strong,strength,positive,children,6f3423dc38aad583b36cdf1b0882b31a
free_class_elicitation,10,15805,13,Maya steps outside during the day.,day,positive,light,darkness,positive,days ,6f3423dc38aad583b36cdf1b0882b31a
free_class_elicitation,11,6404,5,Claire is eating a jolly rancher.,jolly rancher,positive,hard,hardness,positive,candy,6f3423dc38aad583b36cdf1b0882b31a
free_class_elicitation,12,4063,2,Greg is driving on a downtown street.,downtown street,neither-nor,narrow,width,negative,streets,6f3423dc38aad583b36cdf1b0882b31a
free_class_elicitation,13,63590,1,Charles is at the zoo and watches a cheetah move.,cheetah,positive,slow,speed,negative,animals,6f3423dc38aad583b36cdf1b0882b31a
free_class_elicitation,14,6051,3,Kim steps into a room with a wood floor.,wood,neither-nor,soft,hardness,negative,flooring,6f3423dc38aad583b36cdf1b0882b31a
free_class_elicitation,15,6781,14,Jennifer steps outside on a day in winter.,winter,negative,cold,temperature,negative,days in the winter,6f3423dc38aad583b36cdf1b0882b31a
free_class_elicitation,16,10806,8,Veronica sees a golfer.,golfer,neither-nor,short,height,negative,golfers,6f3423dc38aad583b36cdf1b0882b31a
free_class_elicitation,17,8661,7,Alicia lifts up a kid.,kid,neither-nor,light,weight,negative,children his age,6f3423dc38aad583b36cdf1b0882b31a
free_class_elicitation,18,36251,1,Lee is at a pet store and notices the length of a chihuahua.,chihuahua,negative,short,length_duration,negative,dogs,6f3423dc38aad583b36cdf1b0882b31a
free_class_elicitation,19,11033,11,Josh walks by a courtyard and hears a cat.,cat,negative,loud,loudness,positive,animals,6f3423dc38aad583b36cdf1b0882b31a
free_class_elicitation,20,13768,3,Sophie is hearing about the hurricane that is heading towards them.,hurricane,positive,weak,strength,negative,storms,6f3423dc38aad583b36cdf1b0882b31a
free_class_elicitation,21,29431,5,Mika is at a decoration shop and looks at a statue made of plastic.,plastic,negative,expensive,price,positive,decorations,6f3423dc38aad583b36cdf1b0882b31a
free_class_elicitation,22,34781,3,Michael takes the first bite of his salad.,salad,neither-nor,warm,temperature,positive,salads,6f3423dc38aad583b36cdf1b0882b31a
free_class_elicitation,23,13019,6,Daniel is at a zoo and looks at a bird.,bird,negative,short,height,negative,animals,6f3423dc38aad583b36cdf1b0882b31a
free_class_elicitation,24,18227,9,David is going for a walk and notices the color of a seagull.,seagull,positive,light,darkness,positive,seagulls colors,6f3423dc38aad583b36cdf1b0882b31a
free_class_elicitation,1,16302,15,Jennifer thinks about reading her favorite novel.,novel,positive,short,length_duration,negative,novels,03d4f12d4fff5b377cc050e5fb518ba8
free_class_elicitation,2,7916,13,Tom walks into a school classroom.,classroom,neither-nor,quiet,loudness,negative,classes,03d4f12d4fff5b377cc050e5fb518ba8
free_class_elicitation,3,10359,11,Lee walks by a courtyard and hears a dog.,dog,neither-nor,loud,loudness,positive,dogs,03d4f12d4fff5b377cc050e5fb518ba8
free_class_elicitation,4,9408,1,Angela is at the zoo and watches a cheetah move.,cheetah,positive,slow,speed,negative,cheetahs,03d4f12d4fff5b377cc050e5fb518ba8
free_class_elicitation,5,14991,3,Tanya takes the first bite of her salad.,salad,neither-nor,cold,temperature,negative,salads,03d4f12d4fff5b377cc050e5fb518ba8
free_class_elicitation,6,7279,14,Simon steps outside on a day in winter.,winter,negative,cold,temperature,negative,winter days ,03d4f12d4fff5b377cc050e5fb518ba8
free_class_elicitation,7,6527,7,Veronica lifts up a kid.,kid,neither-nor,light,weight,negative,kids,03d4f12d4fff5b377cc050e5fb518ba8
free_class_elicitation,8,6896,4,Kim watches a child lift up a box.,child,negative,weak,strength,negative,children,03d4f12d4fff5b377cc050e5fb518ba8
free_class_elicitation,9,9676,4,Melinda is at the zoo and sees a mouse.,mouse,negative,small,size,negative,mice,03d4f12d4fff5b377cc050e5fb518ba8
free_class_elicitation,10,13144,5,Kathleen is eating a jolly rancher.,jolly rancher,positive,soft,hardness,negative,jolly ranchers,03d4f12d4fff5b377cc050e5fb518ba8
free_class_elicitation,11,11007,custom,Maya is at a liquor store and wants to buy a six-pack of beer.,six-pack of beer,negative,cheap,price,negative,beers,03d4f12d4fff5b377cc050e5fb518ba8
free_class_elicitation,12,9839,9,Mika is in a forest and sees a cavern.,cavern,neither-nor,wide,width,positive,caverns,03d4f12d4fff5b377cc050e5fb518ba8
free_class_elicitation,13,10984,2,David is driving on a highway.,highway,positive,wide,width,positive,highways,03d4f12d4fff5b377cc050e5fb518ba8
free_class_elicitation,14,12463,4,Eric is at the zoo and watches a dog being lifted.,dog,neither-nor,light,weight,negative,dogs,03d4f12d4fff5b377cc050e5fb518ba8
free_class_elicitation,15,9828,5,John is at a decoration shop and looks at a statue made of platinum.,platinum,positive,expensive,price,positive,statues,03d4f12d4fff5b377cc050e5fb518ba8
free_class_elicitation,16,7856,11,Sophie is in the park and sees a runner.,runner,positive,quick,speed,positive,runners,03d4f12d4fff5b377cc050e5fb518ba8
free_class_elicitation,17,16680,13,Josh steps outside during the day.,day,positive,light,darkness,positive,days,03d4f12d4fff5b377cc050e5fb518ba8
free_class_elicitation,18,7384,5,Charles is at a gardening store and looks at a flower.,flower,negative,big,size,positive,flowers,03d4f12d4fff5b377cc050e5fb518ba8
free_class_elicitation,19,53679,3,William steps into a room with a carpet floor.,carpet,negative,hard,hardness,positive,carpet,03d4f12d4fff5b377cc050e5fb518ba8
free_class_elicitation,20,7544,9,Robert is going for a walk and notices the color of a crow.,crow,negative,light,darkness,positive,crows,03d4f12d4fff5b377cc050e5fb518ba8
free_class_elicitation,21,6376,6,Julia is at a zoo and looks at a monkey.,monkey,neither-nor,tall,height,positive,monkeys,03d4f12d4fff5b377cc050e5fb518ba8
free_class_elicitation,22,72438,3,Daniel is hearing about the thunderstorm that is heading towards them.,thunderstorm,neither-nor,strong,strength,positive,thunderstorm,03d4f12d4fff5b377cc050e5fb518ba8
free_class_elicitation,23,7536,8,Cameron sees a basketball player.,basketball player,positive,short,height,negative,players,03d4f12d4fff5b377cc050e5fb518ba8
free_class_elicitation,24,9696,1,Monica is at a pet store and notices the length of a chihuahua.,chihuahua,negative,long,length_duration,positive,chihuahuas,03d4f12d4fff5b377cc050e5fb518ba8
free_class_elicitation,1,15558,2,Kim is driving on a side road.,side road,negative,narrow,width,negative,roads,be8aed1b830340dbf264cc447bbba8c9
free_class_elicitation,2,35559,13,Veronica steps outside during the dusk.,dusk,neither-nor,light,darkness,positive,days during dusk,be8aed1b830340dbf264cc447bbba8c9
free_class_elicitation,3,55658,custom,Robert is at a liquor store and wants to buy a six-pack of beer.,six-pack of beer,negative,expensive,price,positive,stores,be8aed1b830340dbf264cc447bbba8c9
free_class_elicitation,4,9355,6,David is at a zoo and looks at a bird.,bird,negative,tall,height,positive,birds,be8aed1b830340dbf264cc447bbba8c9
free_class_elicitation,5,7644,1,Cameron is at the zoo and watches an elephant move.,elephant,neither-nor,slow,speed,negative,animals,be8aed1b830340dbf264cc447bbba8c9
free_class_elicitation,6,8342,1,Natalia is at a pet store and notices the length of a dachshund.,dachshund,positive,short,length_duration,negative,dogs,be8aed1b830340dbf264cc447bbba8c9
free_class_elicitation,7,16202,5,Lee is eating a marshmallow.,marshmallow,negative,hard,hardness,positive,fresh marshmallows,be8aed1b830340dbf264cc447bbba8c9
free_class_elicitation,8,25519,15,John thinks about reading his favorite novel.,novel,positive,short,length_duration,negative,novels,be8aed1b830340dbf264cc447bbba8c9
free_class_elicitation,9,16451,3,Charles takes the first bite of his salad.,salad,neither-nor,cold,temperature,negative,salads he has eaten,be8aed1b830340dbf264cc447bbba8c9
free_class_elicitation,10,11434,11,Sophie walks by a courtyard and hears a cat.,cat,negative,quiet,loudness,negative,courtyards,be8aed1b830340dbf264cc447bbba8c9
free_class_elicitation,11,19709,11,Simon is in the park and sees a runner.,runner,positive,quick,speed,positive,runners,be8aed1b830340dbf264cc447bbba8c9
free_class_elicitation,12,13644,5,Gary is at a gardening store and looks at a bush.,bush,neither-nor,big,size,positive,plants,be8aed1b830340dbf264cc447bbba8c9
free_class_elicitation,13,10812,7,Greg lifts up a baby.,baby,negative,light,weight,negative,babies,be8aed1b830340dbf264cc447bbba8c9
free_class_elicitation,14,52703,4,Kathleen watches a teenager lift up a box.,teenager,neither-nor,strong,strength,positive,kids,be8aed1b830340dbf264cc447bbba8c9
free_class_elicitation,15,9787,4,Michael is at the zoo and watches a dog being lifted.,dog,neither-nor,light,weight,negative,dogs,be8aed1b830340dbf264cc447bbba8c9
free_class_elicitation,16,9326,14,Alexander steps outside on a day in fall.,fall,neither-nor,cold,temperature,negative,days in fall,be8aed1b830340dbf264cc447bbba8c9
free_class_elicitation,17,144691,3,Maya is hearing about the rain that is heading towards them.,rain,negative,strong,strength,positive,storms,be8aed1b830340dbf264cc447bbba8c9
free_class_elicitation,18,7360,13,Angela walks into a school study hall.,study hall,negative,quiet,loudness,negative,halls,be8aed1b830340dbf264cc447bbba8c9
free_class_elicitation,19,13530,3,Tom steps into a room with a tile floor.,tile,positive,hard,hardness,positive,floors in the building,be8aed1b830340dbf264cc447bbba8c9
free_class_elicitation,20,119325,9,Kim is in a forest and sees a cave.,cave,positive,narrow,width,negative,caves,be8aed1b830340dbf264cc447bbba8c9
free_class_elicitation,21,4862,5,Claire is at a decoration shop and looks at a statue made of platinum.,platinum,positive,cheap,price,negative,statue,be8aed1b830340dbf264cc447bbba8c9
free_class_elicitation,22,7918,4,Monica is at the zoo and sees an elephant.,elephant,positive,big,size,positive,elephants,be8aed1b830340dbf264cc447bbba8c9
free_class_elicitation,23,7500,9,Tanya is going for a walk and notices the color of a seagull.,seagull,positive,light,darkness,positive,birds,be8aed1b830340dbf264cc447bbba8c9
free_class_elicitation,24,7459,8,Melinda sees a golfer.,golfer,neither-nor,tall,height,positive,people,be8aed1b830340dbf264cc447bbba8c9
free_class_elicitation,1,19955,3,Alexander steps into a room with a tile floor.,tile,positive,soft,hardness,negative,tiles. ,a06d14d2d44d9f03e90fe5ae1b0ab118
free_class_elicitation,2,8592,5,Josh is at a decoration shop and looks at a statue made of bronze.,bronze,neither-nor,expensive,price,positive,statues.,a06d14d2d44d9f03e90fe5ae1b0ab118
free_class_elicitation,3,7551,custom,Michael is at a liquor store and wants to buy a bottle of wine.,bottle of wine,neither-nor,cheap,price,negative,wines.,a06d14d2d44d9f03e90fe5ae1b0ab118
free_class_elicitation,4,11072,5,Claire is eating a marshmallow.,marshmallow,negative,hard,hardness,positive,sweets.,a06d14d2d44d9f03e90fe5ae1b0ab118
free_class_elicitation,5,10242,13,Natalia steps outside during the day.,day,positive,light,darkness,positive,areas.,a06d14d2d44d9f03e90fe5ae1b0ab118
free_class_elicitation,6,9017,4,Alicia is at the zoo and watches an elephant being lifted.,elephant,positive,heavy,weight,positive,animals.,a06d14d2d44d9f03e90fe5ae1b0ab118
free_class_elicitation,7,16670,14,Robert steps outside on a day in winter.,winter,negative,warm,temperature,positive,days in winter.,a06d14d2d44d9f03e90fe5ae1b0ab118
free_class_elicitation,8,8502,3,Kathleen takes the first bite of her soup.,soup,positive,cold,temperature,negative,food.,a06d14d2d44d9f03e90fe5ae1b0ab118
free_class_elicitation,9,6418,1,Kim is at the zoo and watches a sloth move.,sloth,negative,slow,speed,negative,animals,a06d14d2d44d9f03e90fe5ae1b0ab118
free_class_elicitation,10,6433,9,Eric is going for a walk and notices the color of a crow.,crow,negative,dark,darkness,negative,birds,a06d14d2d44d9f03e90fe5ae1b0ab118
free_class_elicitation,11,12037,13,Monica walks into a school auditorium.,auditorium,positive,quiet,loudness,negative,arenas.,a06d14d2d44d9f03e90fe5ae1b0ab118
free_class_elicitation,12,19372,3,Tom is hearing about the rain that is heading towards them.,rain,negative,strong,strength,positive,days.,a06d14d2d44d9f03e90fe5ae1b0ab118
free_class_elicitation,13,6590,2,Daniel is driving on a highway.,highway,positive,narrow,width,negative,roads.,a06d14d2d44d9f03e90fe5ae1b0ab118
free_class_elicitation,14,6446,4,Maya watches a teenager lift up a box.,teenager,neither-nor,strong,strength,positive,boxes.,a06d14d2d44d9f03e90fe5ae1b0ab118
free_class_elicitation,15,6999,8,Gary sees a golfer.,golfer,neither-nor,short,height,negative,drives.,a06d14d2d44d9f03e90fe5ae1b0ab118
free_class_elicitation,16,9073,7,Stephanie lifts up an adult.,adult,positive,heavy,weight,positive,people.,a06d14d2d44d9f03e90fe5ae1b0ab118
free_class_elicitation,17,6350,1,Jasmine is at a pet store and notices the length of a chihuahua.,chihuahua,negative,short,length_duration,negative,animals.,a06d14d2d44d9f03e90fe5ae1b0ab118
free_class_elicitation,18,7293,11,Anthony walks by a courtyard and hears a dog.,dog,neither-nor,loud,loudness,positive,noises around. ,a06d14d2d44d9f03e90fe5ae1b0ab118
free_class_elicitation,19,7177,4,Mika is at the zoo and sees an elephant.,elephant,positive,big,size,positive,zoo animals.,a06d14d2d44d9f03e90fe5ae1b0ab118
free_class_elicitation,20,4331,11,Kim is in the park and sees a jogger.,jogger,neither-nor,slow,speed,negative,runners.,a06d14d2d44d9f03e90fe5ae1b0ab118
free_class_elicitation,21,5953,6,David is at a zoo and looks at a monkey.,monkey,neither-nor,tall,height,positive,monkeys.,a06d14d2d44d9f03e90fe5ae1b0ab118
free_class_elicitation,22,8066,9,Jennifer is in a forest and sees a fox hole.,fox hole,negative,narrow,width,negative,holes.,a06d14d2d44d9f03e90fe5ae1b0ab118
free_class_elicitation,23,9420,15,Charles thinks about reading his favorite story.,story,neither-nor,short,length_duration,negative,writings.,a06d14d2d44d9f03e90fe5ae1b0ab118
free_class_elicitation,24,6455,5,Greg is at a gardening store and looks at a flower.,flower,negative,big,size,positive,flowers.,a06d14d2d44d9f03e90fe5ae1b0ab118
free_class_elicitation,1,33079,13,Kim steps outside during the dusk.,dusk,neither-nor,light,darkness,positive,times of the evening,c21ed66956eb4bf5099ddcb21218c202
free_class_elicitation,2,15124,1,William is at a pet store and notices the length of a bassett hound.,bassett hound,neither-nor,short,length_duration,negative,other basset hounds,c21ed66956eb4bf5099ddcb21218c202
free_class_elicitation,3,14037,5,Gabriel is eating a piece of chocolate.,piece of chocolate,neither-nor,soft,hardness,negative,types of chocolate,c21ed66956eb4bf5099ddcb21218c202
free_class_elicitation,4,10518,15,Natalia thinks about reading her favorite poem.,poem,negative,long,length_duration,positive,other poetry,c21ed66956eb4bf5099ddcb21218c202
free_class_elicitation,5,23367,9,Mika is going for a walk and notices the color of a parrot.,parrot,neither-nor,light,darkness,positive,parrot's plumage,c21ed66956eb4bf5099ddcb21218c202
free_class_elicitation,6,19514,custom,Charles is at a liquor store and wants to buy a six-pack of beer.,six-pack of beer,negative,expensive,price,positive,other brands of beer,c21ed66956eb4bf5099ddcb21218c202
free_class_elicitation,7,17193,11,Lucas is in the park and sees a jogger.,jogger,neither-nor,slow,speed,negative,joggers in the park,c21ed66956eb4bf5099ddcb21218c202
free_class_elicitation,8,12209,8,Veronica sees a jockey.,jockey,negative,short,height,negative,people in general,c21ed66956eb4bf5099ddcb21218c202
free_class_elicitation,9,13637,3,Alexander is hearing about the hurricane that is heading towards them.,hurricane,positive,strong,strength,positive,hurricanes that have come through,c21ed66956eb4bf5099ddcb21218c202
free_class_elicitation,10,12254,3,John takes the first bite of his salad.,salad,neither-nor,warm,temperature,positive,salads that he's eaten,c21ed66956eb4bf5099ddcb21218c202
free_class_elicitation,11,14527,9,Jennifer is in a forest and sees a cave.,cave,positive,narrow,width,negative,space in general,c21ed66956eb4bf5099ddcb21218c202
free_class_elicitation,12,27769,14,Michael steps outside on a day in winter.,winter,negative,warm,temperature,positive,winter days,c21ed66956eb4bf5099ddcb21218c202
free_class_elicitation,13,9940,6,Anthony is at a zoo and looks at a bird.,bird,negative,short,height,negative,birds in the zoo,c21ed66956eb4bf5099ddcb21218c202
free_class_elicitation,14,13755,1,Daniel is at the zoo and watches a cheetah move.,cheetah,positive,quick,speed,positive,types of land mammals,c21ed66956eb4bf5099ddcb21218c202
free_class_elicitation,15,10394,7,Alicia lifts up a kid.,kid,neither-nor,light,weight,negative,children that she's picked up,c21ed66956eb4bf5099ddcb21218c202
free_class_elicitation,16,20750,3,Sophie steps into a room with a wood floor.,wood,neither-nor,hard,hardness,positive,other flooring surfaces,c21ed66956eb4bf5099ddcb21218c202
free_class_elicitation,17,10860,13,Greg walks into a school study hall.,study hall,negative,quiet,loudness,negative,buildings,c21ed66956eb4bf5099ddcb21218c202
free_class_elicitation,18,9496,4,Stephanie is at the zoo and sees an elephant.,elephant,positive,small,size,negative,elephants,c21ed66956eb4bf5099ddcb21218c202
free_class_elicitation,19,20606,5,Julia is at a decoration shop and looks at a statue made of plastic.,plastic,negative,expensive,price,positive,items that can be purchased,c21ed66956eb4bf5099ddcb21218c202
free_class_elicitation,20,16176,5,Monica is at a gardening store and looks at a tree.,tree,positive,small,size,negative,trees that are available,c21ed66956eb4bf5099ddcb21218c202
free_class_elicitation,21,15011,4,Tanya watches an adult lift up a box.,adult,positive,strong,strength,positive,adults,c21ed66956eb4bf5099ddcb21218c202
free_class_elicitation,22,10707,2,Jasmine is driving on a highway.,highway,positive,wide,width,positive,roads on which she's driven,c21ed66956eb4bf5099ddcb21218c202
free_class_elicitation,23,12132,11,Eric walks by a courtyard and hears a donkey.,donkey,positive,quiet,loudness,negative,donkeys he's heard,c21ed66956eb4bf5099ddcb21218c202
free_class_elicitation,24,18218,4,Simon is at the zoo and watches a fish being lifted.,fish,negative,light,weight,negative,other creatures,c21ed66956eb4bf5099ddcb21218c202
free_class_elicitation,1,14542,1,Robert is at the zoo and watches a cheetah move.,cheetah,positive,slow,speed,negative,cheetahs,33b9680d6d234eb4a0563b1f519fafdc
free_class_elicitation,2,9089,3,Daniel steps into a room with a carpet floor.,carpet,negative,soft,hardness,negative,carpets,33b9680d6d234eb4a0563b1f519fafdc
free_class_elicitation,3,7187,11,Tom walks by a courtyard and hears a dog.,dog,neither-nor,quiet,loudness,negative,dogs,33b9680d6d234eb4a0563b1f519fafdc
free_class_elicitation,4,12064,13,Greg steps outside during the dusk.,dusk,neither-nor,dark,darkness,negative,evenings,33b9680d6d234eb4a0563b1f519fafdc
free_class_elicitation,5,5409,11,Gary is in the park and sees a walker.,walker,negative,quick,speed,positive,walkers,33b9680d6d234eb4a0563b1f519fafdc
free_class_elicitation,6,10791,1,Julia is at a pet store and notices the length of a dachshund.,dachshund,positive,long,length_duration,positive,dogs,33b9680d6d234eb4a0563b1f519fafdc
free_class_elicitation,7,4751,5,Alexander is eating a marshmallow.,marshmallow,negative,soft,hardness,negative,marshmallows,33b9680d6d234eb4a0563b1f519fafdc
free_class_elicitation,8,4258,6,Angela is at a zoo and looks at a giraffe.,giraffe,positive,tall,height,positive,giraffes,33b9680d6d234eb4a0563b1f519fafdc
free_class_elicitation,9,3769,4,John is at the zoo and sees an elephant.,elephant,positive,small,size,negative,elephants,33b9680d6d234eb4a0563b1f519fafdc
free_class_elicitation,10,9186,4,Kathleen watches a child lift up a box.,child,negative,strong,strength,positive,children,33b9680d6d234eb4a0563b1f519fafdc
free_class_elicitation,11,6959,custom,Michelle is at a liquor store and wants to buy a bottle of top-shelf liquor.,bottle of top-shelf liquor,positive,expensive,price,positive,liquors,33b9680d6d234eb4a0563b1f519fafdc
free_class_elicitation,12,3428,8,Gabriel sees a jockey.,jockey,negative,tall,height,positive,jockies,33b9680d6d234eb4a0563b1f519fafdc
free_class_elicitation,13,3637,15,Stephanie thinks about reading her favorite poem.,poem,negative,long,length_duration,positive,poems,33b9680d6d234eb4a0563b1f519fafdc
free_class_elicitation,14,4353,4,Natalia is at the zoo and watches a dog being lifted.,dog,neither-nor,light,weight,negative,dogs,33b9680d6d234eb4a0563b1f519fafdc
free_class_elicitation,15,3890,5,Tanya is at a gardening store and looks at a bush.,bush,neither-nor,big,size,positive,bushes,33b9680d6d234eb4a0563b1f519fafdc
free_class_elicitation,16,4227,7,Melinda lifts up a baby.,baby,negative,light,weight,negative,babies,33b9680d6d234eb4a0563b1f519fafdc
free_class_elicitation,17,5397,9,Josh is going for a walk and notices the color of a parrot.,parrot,neither-nor,light,darkness,positive,parrots,33b9680d6d234eb4a0563b1f519fafdc
free_class_elicitation,18,4824,9,Simon is in a forest and sees a fox hole.,fox hole,negative,narrow,width,negative,fox holes,33b9680d6d234eb4a0563b1f519fafdc
free_class_elicitation,19,3033,3,Lucas takes the first bite of his salad.,salad,neither-nor,cold,temperature,negative,salads,33b9680d6d234eb4a0563b1f519fafdc
free_class_elicitation,20,6133,14,David steps outside on a day in fall.,fall,neither-nor,warm,temperature,positive,fall days,33b9680d6d234eb4a0563b1f519fafdc
free_class_elicitation,21,4927,3,Charles is hearing about the hurricane that is heading towards them.,hurricane,positive,weak,strength,negative,hurricanes,33b9680d6d234eb4a0563b1f519fafdc
free_class_elicitation,22,13690,5,Alicia is at a decoration shop and looks at a statue made of bronze.,bronze,neither-nor,expensive,price,positive,bronze statues,33b9680d6d234eb4a0563b1f519fafdc
free_class_elicitation,23,7625,13,Mika walks into a school auditorium.,auditorium,positive,quiet,loudness,negative,auditoriums,33b9680d6d234eb4a0563b1f519fafdc
free_class_elicitation,24,3985,2,Claire is driving on a highway.,highway,positive,wide,width,positive,highways,33b9680d6d234eb4a0563b1f519fafdc
free_class_elicitation,1,42989,5,Natalia is eating a piece of chocolate.,piece of chocolate,neither-nor,hard,hardness,positive,The chocolate is hard,81e34888cac909bc27cfc98f3be433b4
free_class_elicitation,2,68527,9,Kathleen is in a forest and sees a fox hole.,fox hole,negative,wide,width,positive,a fox hole.,81e34888cac909bc27cfc98f3be433b4
free_class_elicitation,3,14232,1,Tom is at a pet store and notices the length of a chihuahua.,chihuahua,negative,long,length_duration,positive,a chihuahua.,81e34888cac909bc27cfc98f3be433b4
free_class_elicitation,4,33495,4,Julia watches a teenager lift up a box.,teenager,neither-nor,weak,strength,negative, a teenager,81e34888cac909bc27cfc98f3be433b4
free_class_elicitation,5,32791,9,Alicia is going for a walk and notices the color of a parrot.,parrot,neither-nor,dark,darkness,negative,a parrot,81e34888cac909bc27cfc98f3be433b4
free_class_elicitation,6,23392,8,Maya sees a basketball player.,basketball player,positive,short,height,negative,basketball player.,81e34888cac909bc27cfc98f3be433b4
free_class_elicitation,7,148734,1,Claire is at the zoo and watches an elephant move.,elephant,neither-nor,slow,speed,negative,elephant,81e34888cac909bc27cfc98f3be433b4
free_class_elicitation,8,13871,7,Eric lifts up a baby.,baby,negative,heavy,weight,positive,a baby,81e34888cac909bc27cfc98f3be433b4
free_class_elicitation,9,17472,13,Lucas steps outside during the dusk.,dusk,neither-nor,light,darkness,positive,outside,81e34888cac909bc27cfc98f3be433b4
free_class_elicitation,10,35720,5,Simon is at a decoration shop and looks at a statue made of plastic.,plastic,negative,cheap,price,negative,a statue,81e34888cac909bc27cfc98f3be433b4
free_class_elicitation,11,14671,11,Jennifer is in the park and sees a walker.,walker,negative,slow,speed,negative,walker.,81e34888cac909bc27cfc98f3be433b4
free_class_elicitation,12,14648,4,Stephen is at the zoo and watches a fish being lifted.,fish,negative,light,weight,negative,fish,81e34888cac909bc27cfc98f3be433b4
free_class_elicitation,13,14048,custom,Sophie is at a liquor store and wants to buy a bottle of top-shelf liquor.,bottle of top-shelf liquor,positive,cheap,price,negative,top-shelf liquor.,81e34888cac909bc27cfc98f3be433b4
free_class_elicitation,14,12399,13,Charles walks into a school auditorium.,auditorium,positive,loud,loudness,positive,school auditorium,81e34888cac909bc27cfc98f3be433b4
free_class_elicitation,15,8128,6,Gary is at a zoo and looks at a monkey.,monkey,neither-nor,tall,height,positive,monkey,81e34888cac909bc27cfc98f3be433b4
free_class_elicitation,16,17351,3,Josh steps into a room with a wood floor.,wood,neither-nor,soft,hardness,negative,a wood floor.,81e34888cac909bc27cfc98f3be433b4
free_class_elicitation,17,13415,11,Laura walks by a courtyard and hears a donkey.,donkey,positive,loud,loudness,positive,donkey.,81e34888cac909bc27cfc98f3be433b4
free_class_elicitation,18,6975,15,Stephanie thinks about reading her favorite novel.,novel,positive,long,length_duration,positive,novel.,81e34888cac909bc27cfc98f3be433b4
free_class_elicitation,19,9816,3,Mika is hearing about the thunderstorm that is heading towards them.,thunderstorm,neither-nor,strong,strength,positive,thunderstorm,81e34888cac909bc27cfc98f3be433b4
free_class_elicitation,20,11456,4,Lee is at the zoo and sees an elephant.,elephant,positive,small,size,negative,elephant,81e34888cac909bc27cfc98f3be433b4
free_class_elicitation,21,10927,2,Jasmine is driving on a highway.,highway,positive,wide,width,positive,highway.,81e34888cac909bc27cfc98f3be433b4
free_class_elicitation,22,9759,3,Anthony takes the first bite of his ice cream.,ice cream,negative,cold,temperature,negative,ice cream.,81e34888cac909bc27cfc98f3be433b4
free_class_elicitation,23,14592,5,William is at a gardening store and looks at a flower.,flower,negative,big,size,positive,flower.,81e34888cac909bc27cfc98f3be433b4
free_class_elicitation,24,8096,14,Greg steps outside on a day in summer.,summer,positive,cold,temperature,negative, summer.,81e34888cac909bc27cfc98f3be433b4
free_class_elicitation,1,6005,7,Tanya lifts up a kid.,kid,neither-nor,light,weight,negative,kids,8c6589e45f2e1280823a3f3bde594f18
free_class_elicitation,2,5168,9,Jasmine is in a forest and sees a fox hole.,fox hole,negative,wide,width,positive,fox holes,8c6589e45f2e1280823a3f3bde594f18
free_class_elicitation,3,5039,13,Lee walks into a school auditorium.,auditorium,positive,loud,loudness,positive,schools,8c6589e45f2e1280823a3f3bde594f18
free_class_elicitation,4,10984,1,Daniel is at the zoo and watches an elephant move.,elephant,neither-nor,slow,speed,negative,animals,8c6589e45f2e1280823a3f3bde594f18
free_class_elicitation,5,3775,4,David is at the zoo and watches a dog being lifted.,dog,neither-nor,heavy,weight,positive,dogs,8c6589e45f2e1280823a3f3bde594f18
free_class_elicitation,6,4951,6,William is at a zoo and looks at a giraffe.,giraffe,positive,short,height,negative,giraffes,8c6589e45f2e1280823a3f3bde594f18
free_class_elicitation,7,4736,11,Gary is in the park and sees a runner.,runner,positive,slow,speed,negative,runners,8c6589e45f2e1280823a3f3bde594f18
free_class_elicitation,8,5759,14,Michelle steps outside on a day in fall.,fall,neither-nor,cold,temperature,negative,falls,8c6589e45f2e1280823a3f3bde594f18
free_class_elicitation,9,5391,3,Josh steps into a room with a carpet floor.,carpet,negative,soft,hardness,negative,carpets,8c6589e45f2e1280823a3f3bde594f18
free_class_elicitation,10,4408,5,John is eating a marshmallow.,marshmallow,negative,hard,hardness,positive,marshmallows,8c6589e45f2e1280823a3f3bde594f18
free_class_elicitation,11,3192,4,Anthony is at the zoo and sees a mouse.,mouse,negative,small,size,negative,mouse,8c6589e45f2e1280823a3f3bde594f18
free_class_elicitation,12,5672,9,Greg is going for a walk and notices the color of a seagull.,seagull,positive,light,darkness,positive,birds,8c6589e45f2e1280823a3f3bde594f18
free_class_elicitation,13,8400,13,Mika steps outside during the dusk.,dusk,neither-nor,light,darkness,positive,days,8c6589e45f2e1280823a3f3bde594f18
free_class_elicitation,14,4808,5,Alexander is at a decoration shop and looks at a statue made of plastic.,plastic,negative,expensive,price,positive,statue,8c6589e45f2e1280823a3f3bde594f18
free_class_elicitation,15,3192,11,Angela walks by a courtyard and hears a dog.,dog,neither-nor,quiet,loudness,negative,dogs,8c6589e45f2e1280823a3f3bde594f18
free_class_elicitation,16,4408,2,Robert is driving on a side road.,side road,negative,narrow,width,negative,roads,8c6589e45f2e1280823a3f3bde594f18
free_class_elicitation,17,4847,3,Michael takes the first bite of his salad.,salad,neither-nor,warm,temperature,positive,salads,8c6589e45f2e1280823a3f3bde594f18
free_class_elicitation,18,10992,1,Sophie is at a pet store and notices the length of a dachshund.,dachshund,positive,short,length_duration,negative,dogs,8c6589e45f2e1280823a3f3bde594f18
free_class_elicitation,19,2895,15,Lucas thinks about reading his favorite poem.,poem,negative,short,length_duration,negative,poems,8c6589e45f2e1280823a3f3bde594f18
free_class_elicitation,20,6927,5,Melinda is at a gardening store and looks at a bush.,bush,neither-nor,big,size,positive,bushes,8c6589e45f2e1280823a3f3bde594f18
free_class_elicitation,21,5744,8,Kim sees a basketball player.,basketball player,positive,short,height,negative,basketball players,8c6589e45f2e1280823a3f3bde594f18
free_class_elicitation,22,9383,custom,Kathleen is at a liquor store and wants to buy a bottle of top-shelf liquor.,bottle of top-shelf liquor,positive,expensive,price,positive,liquors,8c6589e45f2e1280823a3f3bde594f18
free_class_elicitation,23,5120,4,Stephen watches a child lift up a box.,child,negative,strong,strength,positive,children,8c6589e45f2e1280823a3f3bde594f18
free_class_elicitation,24,6000,3,Charles is hearing about the hurricane that is heading towards them.,hurricane,positive,strong,strength,positive,storms,8c6589e45f2e1280823a3f3bde594f18
free_class_elicitation,1,9579,8,Julia sees a basketball player.,basketball player,positive,short,height,negative,players,b2f85997c64ac460d0aba3932d73255f
free_class_elicitation,2,6117,14,Greg steps outside on a day in summer.,summer,positive,warm,temperature,positive,days,b2f85997c64ac460d0aba3932d73255f
free_class_elicitation,3,3775,9,Robert is going for a walk and notices the color of a crow.,crow,negative,dark,darkness,negative,birds,b2f85997c64ac460d0aba3932d73255f
free_class_elicitation,4,3996,11,Jennifer is in the park and sees a jogger.,jogger,neither-nor,slow,speed,negative,joggers,b2f85997c64ac460d0aba3932d73255f
free_class_elicitation,5,8641,5,Mika is at a decoration shop and looks at a statue made of plastic.,plastic,negative,expensive,price,positive,statues,b2f85997c64ac460d0aba3932d73255f
free_class_elicitation,6,8972,4,Charles watches a child lift up a box.,child,negative,strong,strength,positive,children,b2f85997c64ac460d0aba3932d73255f
free_class_elicitation,7,5004,7,Sophie lifts up an adult.,adult,positive,heavy,weight,positive,adults,b2f85997c64ac460d0aba3932d73255f
free_class_elicitation,8,5156,15,Kim thinks about reading her favorite poem.,poem,negative,short,length_duration,negative,poems,b2f85997c64ac460d0aba3932d73255f
free_class_elicitation,9,9722,4,William is at the zoo and sees an elephant.,elephant,positive,small,size,negative,elephants,b2f85997c64ac460d0aba3932d73255f
free_class_elicitation,10,2691,1,Kim is at a pet store and notices the length of a chihuahua.,chihuahua,negative,long,length_duration,positive,dogs,b2f85997c64ac460d0aba3932d73255f
free_class_elicitation,11,5289,5,David is eating a piece of chocolate.,piece of chocolate,neither-nor,soft,hardness,negative,chocolate,b2f85997c64ac460d0aba3932d73255f
free_class_elicitation,12,7790,3,Monica is hearing about the thunderstorm that is heading towards them.,thunderstorm,neither-nor,weak,strength,negative,storms,b2f85997c64ac460d0aba3932d73255f
free_class_elicitation,13,4906,5,Eric is at a gardening store and looks at a bush.,bush,neither-nor,big,size,positive,bushes,b2f85997c64ac460d0aba3932d73255f
free_class_elicitation,14,4213,11,Laura walks by a courtyard and hears a dog.,dog,neither-nor,loud,loudness,positive,dogs,b2f85997c64ac460d0aba3932d73255f
free_class_elicitation,15,4067,2,John is driving on a downtown street.,downtown street,neither-nor,wide,width,positive,streets,b2f85997c64ac460d0aba3932d73255f
free_class_elicitation,16,8914,custom,Anthony is at a liquor store and wants to buy a bottle of top-shelf liquor.,bottle of top-shelf liquor,positive,cheap,price,negative,liquor,b2f85997c64ac460d0aba3932d73255f
free_class_elicitation,17,6747,3,Tom takes the first bite of his salad.,salad,neither-nor,warm,temperature,positive,salads,b2f85997c64ac460d0aba3932d73255f
free_class_elicitation,18,5831,9,Natalia is in a forest and sees a fox hole.,fox hole,negative,wide,width,positive,fox holes,b2f85997c64ac460d0aba3932d73255f
free_class_elicitation,19,6103,3,Stephanie steps into a room with a tile floor.,tile,positive,hard,hardness,positive,floors,b2f85997c64ac460d0aba3932d73255f
free_class_elicitation,20,4154,6,Alexander is at a zoo and looks at a bird.,bird,negative,short,height,negative,birds,b2f85997c64ac460d0aba3932d73255f
free_class_elicitation,21,5595,4,Kathleen is at the zoo and watches an elephant being lifted.,elephant,positive,light,weight,negative,elephants,b2f85997c64ac460d0aba3932d73255f
free_class_elicitation,22,11859,1,Lee is at the zoo and watches an elephant move.,elephant,neither-nor,slow,speed,negative,animals,b2f85997c64ac460d0aba3932d73255f
free_class_elicitation,23,4575,13,Gabriel steps outside during the day.,day,positive,light,darkness,positive,days,b2f85997c64ac460d0aba3932d73255f
free_class_elicitation,24,6965,13,Tanya walks into a school study hall.,study hall,negative,quiet,loudness,negative,study halls,b2f85997c64ac460d0aba3932d73255f
free_class_elicitation,1,5512,2,Claire is driving on a highway.,highway,positive,wide,width,positive,roads,58c2c7af04ada266329e8b02b8257f6a
free_class_elicitation,2,6012,11,Michael walks by a courtyard and hears a cat.,cat,negative,loud,loudness,positive,cats,58c2c7af04ada266329e8b02b8257f6a
free_class_elicitation,3,6279,7,Cameron lifts up a kid.,kid,neither-nor,heavy,weight,positive,kids,58c2c7af04ada266329e8b02b8257f6a
free_class_elicitation,4,6535,1,Stephen is at a pet store and notices the length of a chihuahua.,chihuahua,negative,long,length_duration,positive,chihuahuas,58c2c7af04ada266329e8b02b8257f6a
free_class_elicitation,5,5088,4,Maya watches a child lift up a box.,child,negative,strong,strength,positive,children,58c2c7af04ada266329e8b02b8257f6a
free_class_elicitation,6,4915,15,David thinks about reading his favorite story.,story,neither-nor,short,length_duration,negative,stories,58c2c7af04ada266329e8b02b8257f6a
free_class_elicitation,7,9007,13,Simon walks into a school classroom.,classroom,neither-nor,loud,loudness,positive,rooms,58c2c7af04ada266329e8b02b8257f6a
free_class_elicitation,8,4273,11,Jennifer is in the park and sees a walker.,walker,negative,quick,speed,positive,walkers,58c2c7af04ada266329e8b02b8257f6a
free_class_elicitation,9,6326,5,Stephanie is at a gardening store and looks at a flower.,flower,negative,small,size,negative,flowers,58c2c7af04ada266329e8b02b8257f6a
free_class_elicitation,10,5150,3,Julia takes the first bite of her soup.,soup,positive,warm,temperature,positive,soups,58c2c7af04ada266329e8b02b8257f6a
free_class_elicitation,11,3530,6,Greg is at a zoo and looks at a monkey.,monkey,neither-nor,tall,height,positive,monkeys,58c2c7af04ada266329e8b02b8257f6a
free_class_elicitation,12,7513,13,Mika steps outside during the dusk.,dusk,neither-nor,dark,darkness,negative,times of day,58c2c7af04ada266329e8b02b8257f6a
free_class_elicitation,13,3765,1,Michelle is at the zoo and watches an elephant move.,elephant,neither-nor,slow,speed,negative,animals,58c2c7af04ada266329e8b02b8257f6a
free_class_elicitation,14,8339,3,Jasmine is hearing about the hurricane that is heading towards them.,hurricane,positive,weak,strength,negative,hurricanes,58c2c7af04ada266329e8b02b8257f6a
free_class_elicitation,15,6463,5,Robert is at a decoration shop and looks at a statue made of platinum.,platinum,positive,expensive,price,positive,statues,58c2c7af04ada266329e8b02b8257f6a
free_class_elicitation,16,13718,custom,Lee is at a liquor store and wants to buy a bottle of top-shelf liquor.,bottle of top-shelf liquor,positive,cheap,price,negative,top-shelf liquors,58c2c7af04ada266329e8b02b8257f6a
free_class_elicitation,17,3748,4,Gary is at the zoo and sees an elephant.,elephant,positive,small,size,negative,elephants,58c2c7af04ada266329e8b02b8257f6a
free_class_elicitation,18,5265,8,Alicia sees a golfer.,golfer,neither-nor,tall,height,positive,people,58c2c7af04ada266329e8b02b8257f6a
free_class_elicitation,19,4116,9,Lucas is in a forest and sees a fox hole.,fox hole,negative,narrow,width,negative,holes,58c2c7af04ada266329e8b02b8257f6a
free_class_elicitation,20,7912,5,William is eating a jolly rancher.,jolly rancher,positive,soft,hardness,negative,jolly ranchers,58c2c7af04ada266329e8b02b8257f6a
free_class_elicitation,21,6249,3,Melinda steps into a room with a wood floor.,wood,neither-nor,soft,hardness,negative,wood floors,58c2c7af04ada266329e8b02b8257f6a
free_class_elicitation,22,4930,9,Veronica is going for a walk and notices the color of a seagull.,seagull,positive,light,darkness,positive,seagulls,58c2c7af04ada266329e8b02b8257f6a
free_class_elicitation,23,6499,14,Natalia steps outside on a day in winter.,winter,negative,cold,temperature,negative,days,58c2c7af04ada266329e8b02b8257f6a
free_class_elicitation,24,3839,4,Charles is at the zoo and watches a fish being lifted.,fish,negative,light,weight,negative,fish,58c2c7af04ada266329e8b02b8257f6a
free_class_elicitation,1,12014,15,Michael thinks about reading his favorite story.,story,neither-nor,long,length_duration,positive,stories,c528990cd02b9d4c5de969d2e808187c
free_class_elicitation,2,4966,2,Charles is driving on a side road.,side road,negative,narrow,width,negative,roads,c528990cd02b9d4c5de969d2e808187c
free_class_elicitation,3,8134,1,Julia is at a pet store and notices the length of a chihuahua.,chihuahua,negative,long,length_duration,positive,chihuahuas,c528990cd02b9d4c5de969d2e808187c
free_class_elicitation,4,6271,6,Jennifer is at a zoo and looks at a giraffe.,giraffe,positive,tall,height,positive,giraffes,c528990cd02b9d4c5de969d2e808187c
free_class_elicitation,5,6660,4,Michelle watches a teenager lift up a box.,teenager,neither-nor,weak,strength,negative,people,c528990cd02b9d4c5de969d2e808187c
free_class_elicitation,6,21447,5,Veronica is at a decoration shop and looks at a statue made of platinum.,platinum,positive,cheap,price,negative,statues,c528990cd02b9d4c5de969d2e808187c
free_class_elicitation,7,8381,3,Jasmine steps into a room with a tile floor.,tile,positive,soft,hardness,negative,tiles,c528990cd02b9d4c5de969d2e808187c
free_class_elicitation,8,18823,14,Claire steps outside on a day in winter.,winter,negative,warm,temperature,positive,winter days,c528990cd02b9d4c5de969d2e808187c
free_class_elicitation,9,14179,13,Sophie steps outside during the night.,night,negative,dark,darkness,negative,times of the day,c528990cd02b9d4c5de969d2e808187c
free_class_elicitation,10,8559,4,Stephanie is at the zoo and watches a dog being lifted.,dog,neither-nor,light,weight,negative,animals,c528990cd02b9d4c5de969d2e808187c
free_class_elicitation,11,15329,11,Natalia is in the park and sees a runner.,runner,positive,slow,speed,negative,runners,c528990cd02b9d4c5de969d2e808187c
free_class_elicitation,12,6039,9,William is going for a walk and notices the color of a parrot.,parrot,neither-nor,dark,darkness,negative,birds,c528990cd02b9d4c5de969d2e808187c
free_class_elicitation,13,72413,custom,Kathleen is at a liquor store and wants to buy a six-pack of beer.,six-pack of beer,negative,expensive,price,positive,beer,c528990cd02b9d4c5de969d2e808187c
free_class_elicitation,14,18041,4,Laura is at the zoo and sees a monkey.,monkey,neither-nor,big,size,positive,monkies,c528990cd02b9d4c5de969d2e808187c
free_class_elicitation,15,26342,3,Lee is hearing about the rain that is heading towards them.,rain,negative,strong,strength,positive,rain,c528990cd02b9d4c5de969d2e808187c
free_class_elicitation,16,8821,11,Maya walks by a courtyard and hears a cat.,cat,negative,quiet,loudness,negative,cats,c528990cd02b9d4c5de969d2e808187c
free_class_elicitation,17,10227,9,Angela is in a forest and sees a cave.,cave,positive,wide,width,positive,caves,c528990cd02b9d4c5de969d2e808187c
free_class_elicitation,18,4754,13,Kim walks into a school auditorium.,auditorium,positive,quiet,loudness,negative,schools,c528990cd02b9d4c5de969d2e808187c
free_class_elicitation,19,5070,1,Stephen is at the zoo and watches a cheetah move.,cheetah,positive,quick,speed,positive,cats,c528990cd02b9d4c5de969d2e808187c
free_class_elicitation,20,4318,8,Robert sees a golfer.,golfer,neither-nor,short,height,negative,golfers,c528990cd02b9d4c5de969d2e808187c
free_class_elicitation,21,5737,5,Alexander is eating a marshmallow.,marshmallow,negative,soft,hardness,negative,foods,c528990cd02b9d4c5de969d2e808187c
free_class_elicitation,22,5512,7,Alicia lifts up a kid.,kid,neither-nor,heavy,weight,positive,kids,c528990cd02b9d4c5de969d2e808187c
free_class_elicitation,23,6077,3,Gary takes the first bite of his soup.,soup,positive,warm,temperature,positive,foods,c528990cd02b9d4c5de969d2e808187c
free_class_elicitation,24,3209,5,John is at a gardening store and looks at a bush.,bush,neither-nor,big,size,positive,bushes,c528990cd02b9d4c5de969d2e808187c
free_class_elicitation,1,24508,5,Alexander is at a decoration shop and looks at a statue made of bronze.,bronze,neither-nor,expensive,price,positive,goods,5468d6418c1fcfcac187f21881243f98
free_class_elicitation,2,15226,4,Michelle watches a teenager lift up a box.,teenager,neither-nor,strong,strength,positive,people,5468d6418c1fcfcac187f21881243f98
free_class_elicitation,3,10511,13,Claire steps outside during the day.,day,positive,light,darkness,positive,room,5468d6418c1fcfcac187f21881243f98
free_class_elicitation,4,6220,5,Kim is at a gardening store and looks at a tree.,tree,positive,small,size,negative,trees,5468d6418c1fcfcac187f21881243f98
free_class_elicitation,5,5852,15,Gary thinks about reading his favorite poem.,poem,negative,long,length_duration,positive,poems,5468d6418c1fcfcac187f21881243f98
free_class_elicitation,6,5460,9,Kathleen is in a forest and sees a cave.,cave,positive,narrow,width,negative,caves,5468d6418c1fcfcac187f21881243f98
free_class_elicitation,7,11487,9,Simon is going for a walk and notices the color of a parrot.,parrot,neither-nor,dark,darkness,negative,times of day,5468d6418c1fcfcac187f21881243f98
free_class_elicitation,8,6111,14,Josh steps outside on a day in summer.,summer,positive,warm,temperature,positive,seasons,5468d6418c1fcfcac187f21881243f98
free_class_elicitation,9,6335,13,Veronica walks into a school classroom.,classroom,neither-nor,quiet,loudness,negative,rooms,5468d6418c1fcfcac187f21881243f98
free_class_elicitation,10,3927,11,Kim walks by a courtyard and hears a dog.,dog,neither-nor,loud,loudness,positive,dogs,5468d6418c1fcfcac187f21881243f98
free_class_elicitation,11,5278,3,Lee takes the first bite of his ice cream.,ice cream,negative,warm,temperature,positive,days,5468d6418c1fcfcac187f21881243f98
free_class_elicitation,12,9695,11,Michael is in the park and sees a walker.,walker,negative,slow,speed,negative,people,5468d6418c1fcfcac187f21881243f98
free_class_elicitation,13,6288,3,Robert is hearing about the hurricane that is heading towards them.,hurricane,positive,weak,strength,negative,hurricanes,5468d6418c1fcfcac187f21881243f98
free_class_elicitation,14,8764,4,Melinda is at the zoo and watches an elephant being lifted.,elephant,positive,heavy,weight,positive,animals,5468d6418c1fcfcac187f21881243f98
free_class_elicitation,15,5319,2,Mika is driving on a downtown street.,downtown street,neither-nor,narrow,width,negative,streets,5468d6418c1fcfcac187f21881243f98
free_class_elicitation,16,5658,7,Maya lifts up a baby.,baby,negative,light,weight,negative,babies,5468d6418c1fcfcac187f21881243f98
free_class_elicitation,17,11038,5,Eric is eating a marshmallow.,marshmallow,negative,hard,hardness,positive,marshmellows,5468d6418c1fcfcac187f21881243f98
free_class_elicitation,18,4214,8,Cameron sees a basketball player.,basketball player,positive,short,height,negative,players,5468d6418c1fcfcac187f21881243f98
free_class_elicitation,19,6880,1,Natalia is at the zoo and watches a cheetah move.,cheetah,positive,quick,speed,positive,big cats,5468d6418c1fcfcac187f21881243f98
free_class_elicitation,20,6182,1,Anthony is at a pet store and notices the length of a bassett hound.,bassett hound,neither-nor,long,length_duration,positive,dogs,5468d6418c1fcfcac187f21881243f98
free_class_elicitation,21,7290,3,Gabriel steps into a room with a carpet floor.,carpet,negative,hard,hardness,positive,carpets,5468d6418c1fcfcac187f21881243f98
free_class_elicitation,22,46363,6,John is at a zoo and looks at a bird.,bird,negative,short,height,negative,birds,5468d6418c1fcfcac187f21881243f98
free_class_elicitation,23,5046,4,Stephen is at the zoo and sees a mouse.,mouse,negative,small,size,negative,mice,5468d6418c1fcfcac187f21881243f98
free_class_elicitation,24,4311,custom,Jennifer is at a liquor store and wants to buy a bottle of wine.,bottle of wine,neither-nor,cheap,price,negative,wines,5468d6418c1fcfcac187f21881243f98
free_class_elicitation,1,12623,custom,Simon is at a liquor store and wants to buy a bottle of top-shelf liquor.,bottle of top-shelf liquor,positive,expensive,price,positive,liquor,10de00addaa50fdb63468d1fb702bfbf
free_class_elicitation,2,9478,8,Sophie sees a jockey.,jockey,negative,short,height,negative,humans,10de00addaa50fdb63468d1fb702bfbf
free_class_elicitation,3,11297,5,Eric is at a decoration shop and looks at a statue made of bronze.,bronze,neither-nor,cheap,price,negative,statues,10de00addaa50fdb63468d1fb702bfbf
free_class_elicitation,4,6755,6,Mika is at a zoo and looks at a bird.,bird,negative,short,height,negative,birds,10de00addaa50fdb63468d1fb702bfbf
free_class_elicitation,5,9283,3,Alexander is hearing about the thunderstorm that is heading towards them.,thunderstorm,neither-nor,strong,strength,positive,thunderstorms,10de00addaa50fdb63468d1fb702bfbf
free_class_elicitation,6,6652,9,Gabriel is in a forest and sees a cavern.,cavern,neither-nor,wide,width,positive,caverns,10de00addaa50fdb63468d1fb702bfbf
free_class_elicitation,7,5214,15,Robert thinks about reading his favorite poem.,poem,negative,long,length_duration,positive,poems,10de00addaa50fdb63468d1fb702bfbf
free_class_elicitation,8,5770,2,Veronica is driving on a downtown street.,downtown street,neither-nor,narrow,width,negative,streets,10de00addaa50fdb63468d1fb702bfbf
free_class_elicitation,9,6943,9,Cameron is going for a walk and notices the color of a seagull.,seagull,positive,dark,darkness,negative,seagulls,10de00addaa50fdb63468d1fb702bfbf
free_class_elicitation,10,5878,14,Laura steps outside on a day in summer.,summer,positive,warm,temperature,positive,days,10de00addaa50fdb63468d1fb702bfbf
free_class_elicitation,11,5039,4,John is at the zoo and sees a mouse.,mouse,negative,big,size,positive,mice,10de00addaa50fdb63468d1fb702bfbf
free_class_elicitation,12,5059,1,Kathleen is at a pet store and notices the length of a chihuahua.,chihuahua,negative,long,length_duration,positive,dogs,10de00addaa50fdb63468d1fb702bfbf
free_class_elicitation,13,6851,1,Stephanie is at the zoo and watches an elephant move.,elephant,neither-nor,quick,speed,positive,elephants,10de00addaa50fdb63468d1fb702bfbf
free_class_elicitation,14,7887,3,Josh takes the first bite of his soup.,soup,positive,cold,temperature,negative,soups,10de00addaa50fdb63468d1fb702bfbf
free_class_elicitation,15,5881,5,Lucas is at a gardening store and looks at a tree.,tree,positive,small,size,negative,trees,10de00addaa50fdb63468d1fb702bfbf
free_class_elicitation,16,6242,4,Daniel watches a child lift up a box.,child,negative,weak,strength,negative,children,10de00addaa50fdb63468d1fb702bfbf
free_class_elicitation,17,5122,11,Julia is in the park and sees a walker.,walker,negative,quick,speed,positive,people,10de00addaa50fdb63468d1fb702bfbf
free_class_elicitation,18,4606,3,Kim steps into a room with a wood floor.,wood,neither-nor,soft,hardness,negative,floors,10de00addaa50fdb63468d1fb702bfbf
free_class_elicitation,19,5679,13,Stephen walks into a school classroom.,classroom,neither-nor,quiet,loudness,negative,classrooms,10de00addaa50fdb63468d1fb702bfbf
free_class_elicitation,20,4386,11,Greg walks by a courtyard and hears a dog.,dog,neither-nor,loud,loudness,positive,dogs,10de00addaa50fdb63468d1fb702bfbf
free_class_elicitation,21,6267,7,Jennifer lifts up an adult.,adult,positive,light,weight,negative,people,10de00addaa50fdb63468d1fb702bfbf
free_class_elicitation,22,8027,13,Kim steps outside during the day.,day,positive,light,darkness,positive,days,10de00addaa50fdb63468d1fb702bfbf
free_class_elicitation,23,10152,4,Tom is at the zoo and watches an elephant being lifted.,elephant,positive,heavy,weight,positive,animals,10de00addaa50fdb63468d1fb702bfbf
free_class_elicitation,24,5443,5,Jasmine is eating a marshmallow.,marshmallow,negative,soft,hardness,negative,marshmallows,10de00addaa50fdb63468d1fb702bfbf
free_class_elicitation,1,37553,4,Tanya watches a teenager lift up a box.,teenager,neither-nor,strong,strength,positive,teenagers,237fd5bbd3a50ebdc977849671d19ac1
free_class_elicitation,2,22232,2,Julia is driving on a downtown street.,downtown street,neither-nor,wide,width,positive,streets,237fd5bbd3a50ebdc977849671d19ac1
free_class_elicitation,3,23409,14,Cameron steps outside on a day in winter.,winter,negative,cold,temperature,negative,days outside,237fd5bbd3a50ebdc977849671d19ac1
free_class_elicitation,4,29422,8,Melinda sees a jockey.,jockey,negative,short,height,negative,people,237fd5bbd3a50ebdc977849671d19ac1
free_class_elicitation,5,34236,3,Gary takes the first bite of his soup.,soup,positive,warm,temperature,positive,food,237fd5bbd3a50ebdc977849671d19ac1
free_class_elicitation,6,29535,6,Michelle is at a zoo and looks at a monkey.,monkey,neither-nor,short,height,negative,primates,237fd5bbd3a50ebdc977849671d19ac1
free_class_elicitation,7,39668,3,Eric steps into a room with a carpet floor.,carpet,negative,soft,hardness,negative,uncarpeted floors,237fd5bbd3a50ebdc977849671d19ac1
free_class_elicitation,8,24692,11,Stephen walks by a courtyard and hears a donkey.,donkey,positive,quiet,loudness,negative,donkeys,237fd5bbd3a50ebdc977849671d19ac1
free_class_elicitation,9,35100,5,Gabriel is at a decoration shop and looks at a statue made of plastic.,plastic,negative,expensive,price,positive,decorative statues,237fd5bbd3a50ebdc977849671d19ac1
free_class_elicitation,10,20374,1,Angela is at the zoo and watches an elephant move.,elephant,neither-nor,slow,speed,negative, animals at the zoo,237fd5bbd3a50ebdc977849671d19ac1
free_class_elicitation,11,27797,9,Robert is going for a walk and notices the color of a seagull.,seagull,positive,dark,darkness,negative,kinds of seagulls,237fd5bbd3a50ebdc977849671d19ac1
free_class_elicitation,12,21915,5,Greg is eating a marshmallow.,marshmallow,negative,soft,hardness,negative,chewy cookies,237fd5bbd3a50ebdc977849671d19ac1
