workerid,rt,trial_type,trial_num,adj_positiveness,np_positiveness,context,np,adj,response,sim_glove
0,12247,free_class_elicitation,1,positive,positive,Veronica is walking outside and hears the cry of a rooster.,rooster,loud,sounds,0.13197335600852966
0,6518,free_class_elicitation,2,positive,neither-nor,The waitress brings Kim her food at the diner. Kim takes the first bite of her fruit.,fruit,warm,food,0.573560357093811
0,6050,free_class_elicitation,3,positive,positive,Stephen is sitting in a gymnasium.,gymnasium,loud,locations,0.0895923525094986
0,5734,free_class_elicitation,4,negative,positive,Sophie sees a giraffe at the zoo.,giraffe,short,giraffes,0.628443717956543
0,7155,free_class_elicitation,5,positive,negative,Michael is looking for a place to live and checks out an apartment.,apartment,large,apartments,0.7545885443687439
0,10107,free_class_elicitation,6,positive,positive,Stephanie takes a first sip from a cup of coffee.,coffee,hot,drinks,0.7287518978118896
0,8113,free_class_elicitation,7,negative,negative,Michelle lifts up a baby named Allen.,baby,light,things,0.5007268190383911
0,3953,free_class_elicitation,8,negative,neither-nor,Jennifer is helping a friend move and picks up a box.,box,light,boxes,0.730573832988739
0,7438,free_class_elicitation,9,negative,positive,Gary hears somebody playing the drums.,drums,quiet,musical instruments,
0,4781,free_class_elicitation,10,positive,negative,Kathleen looks at the price of a box of wine.,box of wine,expensive,wines,
0,4002,free_class_elicitation,11,positive,neither-nor,Mika is at the butchershop and looks at the price of a piece of chicken.,chicken,expensive,meats,0.6213933825492859
0,5832,free_class_elicitation,12,positive,negative,Greg steps outside on a day in Winter.,Winter,warm,winter days,
0,4846,free_class_elicitation,13,negative,positive,Claire sees a basketball player.,basketball player,short,basketball players,
0,5512,free_class_elicitation,14,negative,negative,Jasmine is working in the machine shop and picks up a piece of styrofoam.,styrofoam,light,objects,0.21036916971206665
0,5757,free_class_elicitation,15,positive,neither-nor,Cameron steps outside during dusk.,dusk,light,dark days,
0,3365,free_class_elicitation,16,negative,neither-nor,Kim is visiting a friend and sees their pet cat.,cat,small,cats,0.7323004007339478
0,4242,free_class_elicitation,17,negative,neither-nor,Julia is at the zoo watching an eel travel.,eel,slow,animals,0.15070052444934845
0,3603,free_class_elicitation,18,negative,negative,Robert is thinking about watching something on Netflix and looks at the duration of a TV show.,TV show,short,shows,
1,10371,free_class_elicitation,1,positive,negative,Laura is walking outside and hears the cry of a hummingbird.,hummingbird,loud,birds,0.3009658455848694
1,10065,free_class_elicitation,2,positive,positive,The waitress brings Kim her food at the diner. Kim takes the first bite of her burger.,burger,warm,burgers,0.7014809846878052
1,7046,free_class_elicitation,3,positive,neither-nor,Angela is visiting a friend and sees their pet cat.,cat,large,cats,0.7323004007339478
1,8930,free_class_elicitation,4,positive,positive,Robert sees a basketball player.,basketball player,tall,basketball players,
1,5685,free_class_elicitation,5,positive,negative,Alicia takes a first sip from a cup of water.,water,hot,water,1.0
1,6624,free_class_elicitation,6,positive,neither-nor,Lee is at the butchershop and looks at the price of a piece of chicken.,chicken,expensive,chicken,1.0
1,8566,free_class_elicitation,7,positive,neither-nor,Maya lifts up a kid named Allen.,kid,heavy,Allen,
1,5407,free_class_elicitation,8,negative,negative,Kim hears somebody playing the violin.,violin,quiet,violin,0.9999999403953552
1,10782,free_class_elicitation,9,negative,neither-nor,Alexander is sitting in a classroom.,classroom,quiet,classrooms,0.8148455619812012
1,9158,free_class_elicitation,10,positive,negative,Anthony sees a child named Pat.,child,tall,children,0.8553194999694824
1,10397,free_class_elicitation,11,negative,neither-nor,John is thinking about watching something on Netflix and looks at the duration of a documentary.,documentary,short,documentaries,0.7954923510551453
1,7448,free_class_elicitation,12,negative,neither-nor,Stephen is looking for a place to live and checks out a townhouse.,townhouse,small,townhouse,1.0
1,12114,free_class_elicitation,13,negative,positive,Gary steps outside during the morning.,the morning,dark,mornings,
1,4536,free_class_elicitation,14,negative,negative,Daniel steps outside on a day in Winter.,Winter,cold,winters,
1,7501,free_class_elicitation,15,negative,positive,Michael is working in the machine shop and picks up a piece of steel.,steel,light,steel,0.9999999403953552
1,8499,free_class_elicitation,16,negative,positive,Claire looks at the price of a bottle of top-shelf liquor.,bottle of top-shelf liquor,cheap,alcohol,
1,6783,free_class_elicitation,17,positive,positive,Sophie is helping a friend move and picks up a piece of furniture.,piece of furniture,heavy,furniture,
1,6230,free_class_elicitation,18,negative,negative,Julia is at the zoo watching a slug travel.,slug,slow,slugs,0.5862656235694885
2,5821,free_class_elicitation,1,negative,positive,Josh is working in the machine shop and picks up a piece of steel.,steel,light,20,0.3487318158149719
2,4607,free_class_elicitation,2,positive,positive,John sees an adult named Pat.,adult,tall,10,0.44051164388656616
2,4119,free_class_elicitation,3,negative,negative,Gary sees a jockey.,jockey,short,15,0.11630497127771378
2,4334,free_class_elicitation,4,positive,negative,Lucas steps outside during the evening.,the evening,light,14,
2,8722,free_class_elicitation,5,negative,positive,The waitress brings Michelle her food at the diner. Michelle takes the first bite of her burger.,burger,cold,20,0.1391184777021408
2,33080,free_class_elicitation,6,negative,positive,Angela is thinking about watching something on Netflix and looks at the duration of a movie.,movie,short,Activity Ratios,
2,6086,free_class_elicitation,7,negative,neither-nor,Lee hears somebody playing the piano.,piano,quiet,50,0.18715035915374756
2,6045,free_class_elicitation,8,positive,neither-nor,Eric lifts up a kid named Allen.,kid,heavy,30,0.23326745629310608
2,5575,free_class_elicitation,9,positive,negative,The mailman drops off an envelope for Tanya. Tanya picks it up.,envelope,heavy,40,0.10279475152492523
2,5672,free_class_elicitation,10,positive,positive,Cameron is at the butchershop and looks at the price of a piece of steak.,steak,expensive,50,0.11312618851661682
2,7595,free_class_elicitation,11,positive,negative,Kathleen is visiting a friend and sees their pet mouse.,mouse,large,30,0.1457078754901886
2,4789,free_class_elicitation,12,negative,neither-nor,Veronica is helping a friend move and picks up a box.,box,light,40,0.35430487990379333
2,4797,free_class_elicitation,13,negative,negative,Natalia takes a first sip from a cup of water.,water,cold,50,0.4390360713005066
2,7806,free_class_elicitation,14,positive,neither-nor,Gabriel is walking outside and hears the cry of a parrot.,parrot,loud,60,-0.06585884839296341
2,5604,free_class_elicitation,15,positive,positive,Maya looks at the price of a bottle of top-shelf liquor.,bottle of top-shelf liquor,expensive,20,
2,9323,free_class_elicitation,16,negative,neither-nor,Michael is sitting in a classroom.,classroom,quiet,30,0.2147848755121231
2,4049,free_class_elicitation,17,negative,negative,Robert is at the zoo watching a slug travel.,slug,slow,20,0.09005183726549149
2,3352,free_class_elicitation,18,positive,neither-nor,Melinda steps outside on a day in Fall.,Fall,warm,50,
3,14623,free_class_elicitation,1,negative,positive,William is visiting a friend and sees their pet dog.,dog,small,pet dogs,
3,13680,free_class_elicitation,2,positive,neither-nor,Claire looks at the price of a bottle of wine.,bottle of wine,expensive,bottle of wines,
3,8152,free_class_elicitation,3,negative,negative,Maya is looking for a place to live and checks out an apartment.,apartment,small,apartments,0.7545885443687439
3,13608,free_class_elicitation,4,negative,neither-nor,Lucas sees a baseball player.,baseball player,short,baseball players,
3,8743,free_class_elicitation,5,positive,negative,Simon lifts up a baby named Allen.,baby,heavy,babies,0.7870863676071167
3,8961,free_class_elicitation,6,positive,negative,Natalia steps outside on a day in Winter.,Winter,warm,winters,
3,21911,free_class_elicitation,7,positive,positive,Veronica sees a giraffe at the zoo.,giraffe,tall,giraffes,0.628443717956543
3,10368,free_class_elicitation,8,negative,positive,Tom is thinking about watching something on Netflix and looks at the duration of a movie.,movie,short,movies,0.8959326148033142
3,13888,free_class_elicitation,9,negative,positive,Greg is walking outside and hears the cry of a rooster.,rooster,quiet,roosters,0.3816651701927185
3,21264,free_class_elicitation,10,positive,neither-nor,Julia hears somebody playing the piano.,piano,loud,pianos,0.6042563319206238
3,12599,free_class_elicitation,11,positive,neither-nor,Tanya is sitting in a classroom.,classroom,loud,classrooms,0.8148455619812012
3,14104,free_class_elicitation,12,positive,positive,Kim takes a first sip from a cup of coffee.,coffee,hot,cups of coffee,
3,11592,free_class_elicitation,13,negative,neither-nor,The waitress brings Lee his food at the diner. Lee takes the first bite of his fruit.,fruit,cold,meals,0.3777737021446228
3,8449,free_class_elicitation,14,negative,negative,The mailman drops off an envelope for David. David picks it up.,envelope,light,envelopes,0.7296762466430664
3,10496,free_class_elicitation,15,positive,negative,Monica steps outside during the evening.,the evening,light,evenings,
3,7464,free_class_elicitation,16,positive,positive,Michael is at the zoo watching a snake travel.,snake,fast,snakes,0.7458169460296631
3,7183,free_class_elicitation,17,negative,neither-nor,Gary is helping a friend move and picks up a box.,box,light,boxes,0.730573832988739
3,10935,free_class_elicitation,18,negative,negative,Alicia sees a child named Pat.,child,short,children,0.8553194999694824
4,7369,free_class_elicitation,1,positive,positive,Robert is visiting a friend and sees their pet dog.,dog,large,dogs,0.8344309329986572
4,9051,free_class_elicitation,2,negative,positive,Kim is helping a friend move and picks up a piece of furniture.,piece of furniture,light,furniture,
4,8540,free_class_elicitation,3,positive,negative,The waitress brings Melinda her food at the diner. Melinda takes the first bite of her ice cream.,ice cream,warm,ice cream,
4,6271,free_class_elicitation,4,negative,neither-nor,Mika is at the zoo watching an eel travel.,eel,slow,eels,0.619676411151886
4,5584,free_class_elicitation,5,negative,positive,Alexander hears somebody playing the drums.,drums,quiet,instruments,0.5597385168075562
4,13248,free_class_elicitation,6,positive,neither-nor,Greg sees a baseball player.,baseball player,tall,men,
4,19992,free_class_elicitation,7,negative,neither-nor,Michael takes a first sip from a cup of tea.,tea,cold,tea,1.0
4,6044,free_class_elicitation,8,positive,positive,Natalia sees an adult named Pat.,adult,tall,adults,0.7610254883766174
4,15622,free_class_elicitation,9,negative,negative,Jasmine looks at the price of a box of wine.,box of wine,cheap,wine,
4,9307,free_class_elicitation,10,negative,positive,Tom is walking outside and hears the cry of a rooster.,rooster,quiet,roosters,0.3816651701927185
4,17824,free_class_elicitation,11,positive,positive,Angela steps outside during the morning.,the morning,light,mornings,
4,6039,free_class_elicitation,12,positive,neither-nor,Alicia is working in the machine shop and picks up a piece of plastic.,plastic,heavy,plastic,1.0
4,3961,free_class_elicitation,13,negative,negative,John lifts up a baby named Allen.,baby,light,people,0.44789233803749084
4,3886,free_class_elicitation,14,negative,neither-nor,Laura sees a monkey at the zoo.,monkey,short,monkeys,0.726420521736145
4,4493,free_class_elicitation,15,positive,negative,William is thinking about watching something on Netflix and looks at the duration of a TV show.,TV show,long,shows,
4,5181,free_class_elicitation,16,positive,negative,Gary is sitting in a library.,library,loud,libraries,0.7932377457618713
4,5601,free_class_elicitation,17,positive,neither-nor,Daniel is looking for a place to live and checks out a townhouse.,townhouse,large,townhouses,0.6502399444580078
4,3479,free_class_elicitation,18,negative,negative,Stephen is at the butchershop and looks at the price of a piece of pork.,pork,cheap,meat,0.8260456323623657
5,17438,free_class_elicitation,1,negative,negative,Mika is visiting a friend and sees their pet mouse.,mouse,small,animals.,
5,9165,free_class_elicitation,2,positive,neither-nor,Greg sees a monkey at the zoo.,monkey,tall,monkey&quotechars.,
5,13944,free_class_elicitation,3,negative,neither-nor,The waitress brings Laura her food at the diner. Laura takes the first bite of her fruit.,fruit,cold,fruits she has eaten.,
5,17042,free_class_elicitation,4,positive,positive,Cameron is helping a friend move and picks up a piece of furniture.,piece of furniture,heavy,furniture.,
5,9209,free_class_elicitation,5,positive,neither-nor,Eric sees a teenager named Pat.,teenager,tall,teenager.,
5,12737,free_class_elicitation,6,positive,negative,Tom is sitting in a library.,library,loud,library&quotechars he has been too.,
5,15615,free_class_elicitation,7,negative,positive,Melinda is thinking about watching something on Netflix and looks at the duration of a movie.,movie,short,movies on Netflix.,
5,12560,free_class_elicitation,8,negative,negative,Claire is working in the machine shop and picks up a piece of styrofoam.,styrofoam,light,materials in shop.,
5,9810,free_class_elicitation,9,positive,negative,Tanya steps outside on a day in Winter.,Winter,warm,Winter days.,
5,15713,free_class_elicitation,10,positive,neither-nor,Michelle is at the zoo watching an eel travel.,eel,fast,eel,1.0
5,49946,free_class_elicitation,11,negative,neither-nor,Alexander is looking for a place to live and checks out a townhouse.,townhouse,small,townhouse.,
5,6079,free_class_elicitation,12,negative,negative,Daniel sees a jockey.,jockey,short,Jockey.,
5,15097,free_class_elicitation,13,positive,positive,Julia hears somebody playing the drums.,drums,loud,drummer.,
5,10479,free_class_elicitation,14,positive,positive,Josh is walking outside and hears the cry of a rooster.,rooster,loud,cry of a roosters.,
5,10032,free_class_elicitation,15,negative,neither-nor,Maya takes a first sip from a cup of tea.,tea,cold,sip of tea.,
5,13137,free_class_elicitation,16,positive,negative,Lee steps outside during the evening.,the evening,light,days in evening.,
5,8395,free_class_elicitation,17,negative,positive,The mailman drops off a box for William. William picks it up.,box,light,box.,
5,7999,free_class_elicitation,18,negative,positive,Alicia looks at the price of a bottle of top-shelf liquor.,bottle of top-shelf liquor,cheap,bottle of liquor.,
6,17101,free_class_elicitation,1,positive,negative,Gabriel sees a jockey.,jockey,tall,people,0.10459363460540771
6,16795,free_class_elicitation,2,positive,neither-nor,Veronica is visiting a friend and sees their pet cat.,cat,large,cats,0.7323004007339478
6,26159,free_class_elicitation,3,positive,negative,Michelle is helping a friend move and picks up a piece of clothing.,piece of clothing,heavy,pieces of clothing,
6,22394,free_class_elicitation,4,negative,negative,The mailman drops off an envelope for David. David picks it up.,envelope,light,envelopes,0.7296762466430664
6,15249,free_class_elicitation,5,negative,positive,Kim is working in the machine shop and picks up a piece of steel.,steel,light,pieces of steel,
6,68210,free_class_elicitation,6,positive,positive,Claire is walking outside and hears the cry of a rooster.,rooster,loud,sounds near by,
6,15214,free_class_elicitation,7,negative,positive,Lucas takes a first sip from a cup of coffee.,coffee,cold,cups of coffee,
6,68842,free_class_elicitation,8,negative,negative,Mika is sitting in a library.,library,quiet,places,0.38692426681518555
6,35618,free_class_elicitation,9,positive,positive,Maya steps outside on a day in Summer.,Summer,warm,days,
6,31943,free_class_elicitation,10,negative,neither-nor,The waitress brings Lee his food at the diner. Lee takes the first bite of his fruit.,fruit,cold,food on his plate,
6,13376,free_class_elicitation,11,negative,negative,Josh hears somebody playing the violin.,violin,quiet,music,0.51483553647995
6,13753,free_class_elicitation,12,positive,neither-nor,Tanya is looking for a place to live and checks out a townhouse.,townhouse,large,housing options,
6,30206,free_class_elicitation,13,negative,positive,Charles is at the butchershop and looks at the price of a piece of steak.,steak,cheap,butchershops,
6,12594,free_class_elicitation,14,positive,positive,Laura steps outside during the morning.,the morning,light,times of the day,
6,15583,free_class_elicitation,15,negative,neither-nor,Alicia looks at the price of a bottle of wine.,bottle of wine,cheap,bottles of wine,
6,34061,free_class_elicitation,16,positive,negative,Stephen sees a penguin at the zoo.,penguin,tall,birds,0.36270153522491455
6,10373,free_class_elicitation,17,positive,neither-nor,Stephanie sees a teenager named Pat.,teenager,tall,teenagers,0.6246643662452698
6,15454,free_class_elicitation,18,negative,neither-nor,Daniel lifts up a kid named Allen.,kid,light,kids that age,
7,23795,free_class_elicitation,1,positive,positive,John is visiting a friend and sees their pet dog.,dog,large,dogs,0.8344309329986572
7,31170,free_class_elicitation,2,negative,positive,Tom is helping a friend move and picks up a piece of furniture.,piece of furniture,light,furniture,
7,24470,free_class_elicitation,3,positive,negative,The waitress brings Jasmine her food at the diner. Jasmine takes the first bite of her ice cream.,ice cream,warm,ice cream,
7,13113,free_class_elicitation,4,negative,positive,Charles steps outside on a day in Summer.,Summer,cold,days,
7,50561,free_class_elicitation,5,negative,positive,Lucas is thinking about watching something on Netflix and looks at the duration of a movie.,movie,short,movies,0.8959326148033142
7,10754,free_class_elicitation,6,positive,neither-nor,Eric is walking outside and hears the cry of a parrot.,parrot,loud,parrots,0.6655376553535461
7,17823,free_class_elicitation,7,positive,positive,The mailman drops off a box for Kim. Kim picks it up.,box,heavy,boxes,0.730573832988739
7,12510,free_class_elicitation,8,negative,negative,Maya steps outside during the evening.,the evening,dark,nights,
7,25209,free_class_elicitation,9,negative,neither-nor,Claire sees a monkey at the zoo.,monkey,short,monkeys ,
7,18313,free_class_elicitation,10,negative,negative,Laura is at the butchershop and looks at the price of a piece of pork.,pork,cheap,pieces of pork,
7,17655,free_class_elicitation,11,negative,neither-nor,Kathleen hears somebody playing the piano.,piano,quiet,pianos,0.6042563319206238
7,10603,free_class_elicitation,12,negative,neither-nor,Angela takes a first sip from a cup of tea.,tea,cold,teas ,
7,8417,free_class_elicitation,13,positive,neither-nor,Kim is sitting in a classroom.,classroom,loud,classrooms ,
7,7413,free_class_elicitation,14,positive,neither-nor,Sophie is at the zoo watching an eel travel.,eel,fast,eels,0.619676411151886
7,13433,free_class_elicitation,15,positive,negative,Alexander is working in the machine shop and picks up a piece of styrofoam.,styrofoam,heavy,Styrofoam,
7,37055,free_class_elicitation,16,positive,positive,Daniel looks at the price of a bottle of top-shelf liquor.,bottle of top-shelf liquor,expensive,liquors,
7,5492,free_class_elicitation,17,negative,negative,Gary sees a jockey.,jockey,short,jockeys ,
7,7180,free_class_elicitation,18,positive,negative,Stephen is looking for a place to live and checks out an apartment.,apartment,large,apartments,0.7545885443687439
8,10150,free_class_elicitation,1,negative,positive,Veronica steps outside on a day in Summer.,Summer,cold,Summer days,
8,9289,free_class_elicitation,2,negative,negative,Lucas steps outside during the evening.,the evening,dark,evenings,
8,9823,free_class_elicitation,3,positive,negative,Michael is walking outside and hears the cry of a hummingbird.,hummingbird,loud,noises,0.12356812506914139
8,8486,free_class_elicitation,4,positive,neither-nor,Melinda is at the butchershop and looks at the price of a piece of chicken.,chicken,expensive,chicken,1.0
8,7088,free_class_elicitation,5,negative,positive,The waitress brings Gary his food at the diner. Gary takes the first bite of his burger.,burger,cold,food,0.40979570150375366
8,9012,free_class_elicitation,6,positive,neither-nor,Alexander hears somebody playing the piano.,piano,loud,piano playing,
8,7880,free_class_elicitation,7,negative,neither-nor,Julia is thinking about watching something on Netflix and looks at the duration of a documentary.,documentary,short,documentaries,0.7954923510551453
8,6824,free_class_elicitation,8,positive,neither-nor,Claire is visiting a friend and sees their pet cat.,cat,large,cats,0.7323004007339478
8,5485,free_class_elicitation,9,negative,neither-nor,Sophie is at the zoo watching an eel travel.,eel,slow,animals,0.15070052444934845
8,15560,free_class_elicitation,10,positive,positive,Josh is working in the machine shop and picks up a piece of steel.,steel,heavy,objects one would carry,
8,8897,free_class_elicitation,11,negative,negative,Simon is sitting in a library.,library,quiet,rooms,0.5171043872833252
8,6592,free_class_elicitation,12,positive,positive,Tom takes a first sip from a cup of coffee.,coffee,hot,drinks,0.7287518978118896
8,8337,free_class_elicitation,13,positive,negative,Gabriel sees a child named Pat.,child,tall,children,0.8553194999694824
8,10335,free_class_elicitation,14,negative,positive,Stephen is looking for a place to live and checks out a villa.,villa,small,living accomodations,
8,10529,free_class_elicitation,15,positive,positive,Tanya sees a giraffe at the zoo.,giraffe,tall,animals,0.31947097182273865
8,7463,free_class_elicitation,16,negative,negative,Lee lifts up a baby named Allen.,baby,light,babies,0.7870863676071167
8,8288,free_class_elicitation,17,positive,negative,The mailman drops off an envelope for Kathleen. Kathleen picks it up.,envelope,heavy,envelopes,0.7296762466430664
8,6614,free_class_elicitation,18,negative,neither-nor,Natalia is helping a friend move and picks up a box.,box,light,boxes,0.730573832988739
9,8627,free_class_elicitation,1,negative,neither-nor,Gary is at the zoo watching an eel travel.,eel,slow,animals.,
9,9115,free_class_elicitation,2,positive,negative,Daniel takes a first sip from a cup of water.,water,hot,liquids.,
9,7196,free_class_elicitation,3,negative,positive,The mailman drops off a box for Natalia. Natalia picks it up.,box,light,boxes,0.730573832988739
9,12154,free_class_elicitation,4,negative,negative,Maya is helping a friend move and picks up a piece of clothing.,piece of clothing,light,clothing,
9,21267,free_class_elicitation,5,positive,negative,Gabriel is visiting a friend and sees their pet mouse.,mouse,large,animals,0.5146914720535278
9,9928,free_class_elicitation,6,negative,negative,Anthony looks at the price of a box of wine.,box of wine,cheap,alcohol,
9,4971,free_class_elicitation,7,positive,positive,David sees an adult named Pat.,adult,tall,men,0.46003133058547974
9,5689,free_class_elicitation,8,positive,positive,Veronica steps outside during the morning.,the morning,light,days,
9,8061,free_class_elicitation,9,negative,positive,Josh lifts up an adult named Allen.,adult,light,men,0.46003133058547974
9,4727,free_class_elicitation,10,positive,negative,Kim hears somebody playing the violin.,violin,loud,instruments,0.5735992193222046
9,5808,free_class_elicitation,11,negative,positive,The waitress brings Tom his food at the diner. Tom takes the first bite of his burger.,burger,cold,foods,0.5431130528450012
9,5300,free_class_elicitation,12,negative,negative,Simon steps outside on a day in Winter.,Winter,cold,seasons,
9,4591,free_class_elicitation,13,positive,neither-nor,Robert is sitting in a classroom.,classroom,loud,rooms,0.6130567789077759
9,7105,free_class_elicitation,14,negative,neither-nor,Jasmine is thinking about watching something on Netflix and looks at the duration of a documentary.,documentary,short,documentaries,0.7954923510551453
9,6791,free_class_elicitation,15,positive,neither-nor,John is working in the machine shop and picks up a piece of plastic.,plastic,heavy,plastics,0.46692290902137756
9,3811,free_class_elicitation,16,positive,neither-nor,Angela is at the butchershop and looks at the price of a piece of chicken.,chicken,expensive,chicken,1.0
9,4035,free_class_elicitation,17,negative,neither-nor,Jennifer sees a monkey at the zoo.,monkey,short,animals,0.4994267523288727
9,6150,free_class_elicitation,18,positive,positive,Stephanie is walking outside and hears the cry of a rooster.,rooster,loud,roosters,0.3816651701927185
10,9511,free_class_elicitation,1,positive,negative,Sophie sees a child named Pat.,child,tall,children.,
10,10968,free_class_elicitation,2,negative,positive,Angela hears somebody playing the drums.,drums,quiet,drummers,0.604985237121582
10,9838,free_class_elicitation,3,positive,negative,Charles looks at the price of a box of wine.,box of wine,expensive,box wines,
10,9149,free_class_elicitation,4,negative,neither-nor,Kim sees a baseball player.,baseball player,short,baseball players,
10,8209,free_class_elicitation,5,negative,neither-nor,Julia is walking outside and hears the cry of a parrot.,parrot,quiet,parrots,0.6655376553535461
10,10111,free_class_elicitation,6,positive,positive,Stephanie is thinking about watching something on Netflix and looks at the duration of a movie.,movie,long,Netflix movies,
10,15953,free_class_elicitation,7,negative,positive,Jasmine is at the butchershop and looks at the price of a piece of steak.,steak,cheap,butchershop steaks,
10,13039,free_class_elicitation,8,negative,negative,Mika is working in the machine shop and picks up a piece of styrofoam.,styrofoam,light,materials,0.2321852147579193
10,13872,free_class_elicitation,9,negative,negative,The waitress brings Monica her food at the diner. Monica takes the first bite of her ice cream.,ice cream,cold,diner food,
10,7592,free_class_elicitation,10,positive,neither-nor,Alicia sees a monkey at the zoo.,monkey,tall,monkeys at the zoo,
10,14968,free_class_elicitation,11,positive,positive,Michael steps outside during the morning.,the morning,light,rooms they&quotecharve just been in,
10,7342,free_class_elicitation,12,negative,positive,Robert is at the zoo watching a snake travel.,snake,slow,animals,0.49764129519462585
10,9984,free_class_elicitation,13,positive,neither-nor,Alexander is looking for a place to live and checks out a townhouse.,townhouse,large,places to live,
10,4687,free_class_elicitation,14,positive,neither-nor,Daniel is sitting in a classroom.,classroom,loud,classrooms,0.8148455619812012
10,6248,free_class_elicitation,15,positive,positive,Claire is helping a friend move and picks up a piece of furniture.,piece of furniture,heavy,funiture,
10,8912,free_class_elicitation,16,negative,negative,John steps outside on a day in Winter.,Winter,cold,places they&quotecharve been,
10,9103,free_class_elicitation,17,negative,neither-nor,The mailman drops off a package for Michelle. Michelle picks it up.,package,light,packages they&quotecharve received,
10,3625,free_class_elicitation,18,positive,negative,Kim lifts up a baby named Allen.,baby,heavy,babies,0.7870863676071167
11,15025,free_class_elicitation,1,positive,positive,Eric hears somebody playing the drums.,drums,loud,sounds,0.5546292662620544
11,13078,free_class_elicitation,2,negative,positive,The waitress brings Veronica her food at the diner. Veronica takes the first bite of her burger.,burger,cold,food,0.40979570150375366
11,19434,free_class_elicitation,3,negative,negative,Gary steps outside on a day in Winter.,Winter,cold,Most days,
11,11252,free_class_elicitation,4,negative,positive,Kim is thinking about watching something on Netflix and looks at the duration of a movie.,movie,short,movies,0.8959326148033142
11,14917,free_class_elicitation,5,positive,negative,Maya is working in the machine shop and picks up a piece of styrofoam.,styrofoam,heavy,styrofoam,1.0
11,55208,free_class_elicitation,6,positive,negative,Michael lifts up a baby named Allen.,baby,heavy,babies,0.7870863676071167
11,7732,free_class_elicitation,7,positive,positive,Daniel is walking outside and hears the cry of a rooster.,rooster,loud,roosters,0.3816651701927185
11,6545,free_class_elicitation,8,positive,positive,Jasmine sees a giraffe at the zoo.,giraffe,tall,animals,0.31947097182273865
11,11998,free_class_elicitation,9,negative,neither-nor,Michelle sees a baseball player.,baseball player,short,baseball players,
11,10243,free_class_elicitation,10,positive,neither-nor,Jennifer takes a first sip from a cup of tea.,tea,hot,drinks,0.6754350662231445
11,8047,free_class_elicitation,11,negative,positive,Stephen is visiting a friend and sees their pet dog.,dog,small,dogs,0.8344309329986572
11,12382,free_class_elicitation,12,positive,neither-nor,Angela is helping a friend move and picks up a box.,box,heavy,boxes,0.730573832988739
11,8065,free_class_elicitation,13,negative,neither-nor,Laura is at the zoo watching an eel travel.,eel,slow,animals,0.15070052444934845
11,9656,free_class_elicitation,14,positive,negative,Simon is looking for a place to live and checks out an apartment.,apartment,large,apartments,0.7545885443687439
11,7200,free_class_elicitation,15,negative,negative,Julia is sitting in a library.,library,quiet,libraries,0.7932377457618713
11,8494,free_class_elicitation,16,negative,negative,Stephanie looks at the price of a box of wine.,box of wine,cheap,wines,
11,87844,free_class_elicitation,17,positive,neither-nor,Lucas is at the butchershop and looks at the price of a piece of chicken.,chicken,expensive,chickens,0.5943852663040161
11,11932,free_class_elicitation,18,negative,neither-nor,Claire steps outside during dusk.,dusk,dark,days,0.4569459557533264
12,13069,free_class_elicitation,1,negative,negative,Gabriel is at the butchershop and looks at the price of a piece of pork.,pork,cheap,porks,
12,16588,free_class_elicitation,2,positive,positive,Melinda is sitting in a gymnasium.,gymnasium,loud,Gym&quotechars,
12,15585,free_class_elicitation,3,positive,positive,Monica is working in the machine shop and picks up a piece of steel.,steel,heavy,piece of steel.,
12,17538,free_class_elicitation,4,positive,negative,Stephen is walking outside and hears the cry of a hummingbird.,hummingbird,loud,noise around there.,
12,24168,free_class_elicitation,5,negative,neither-nor,The waitress brings Alicia her food at the diner. Alicia takes the first bite of her fruit.,fruit,cold, foods,
12,15490,free_class_elicitation,6,negative,negative,Stephanie is helping a friend move and picks up a piece of clothing.,piece of clothing,light,piece of clothes.,
12,15859,free_class_elicitation,7,positive,positive,Laura looks at the price of a bottle of top-shelf liquor.,bottle of top-shelf liquor,expensive,other bottle of liquor,
12,122571,free_class_elicitation,8,negative,positive,Gary is at the zoo watching a snake travel.,snake,slow,snakes,0.7458169460296631
12,10027,free_class_elicitation,9,positive,neither-nor,Kim lifts up a kid named Allen.,kid,heavy,kids,0.7564833760261536
12,36874,free_class_elicitation,10,negative,positive,The mailman drops off a box for Julia. Julia picks it up.,box,light,boxes.,
12,38755,free_class_elicitation,11,positive,neither-nor,Daniel steps outside on a day in Fall.,Fall,warm,weather in another day.,
12,10948,free_class_elicitation,12,positive,negative,Michelle sees a child named Pat.,child,tall,childs,0.055921196937561035
12,28024,free_class_elicitation,13,negative,neither-nor,Jasmine is thinking about watching something on Netflix and looks at the duration of a documentary.,documentary,short,Netflix documentary.,
12,12121,free_class_elicitation,14,positive,neither-nor,Claire is looking for a place to live and checks out a townhouse.,townhouse,large,townhouse.,
12,22682,free_class_elicitation,15,positive,negative,Michael steps outside during the evening.,the evening,light,places in house.,
12,13624,free_class_elicitation,16,negative,positive,Tom takes a first sip from a cup of coffee.,coffee,cold,cup of coffee that he had.,
12,8064,free_class_elicitation,17,negative,negative,Maya sees a penguin at the zoo.,penguin,short,penguin,1.0
12,10028,free_class_elicitation,18,negative,neither-nor,Tanya sees a baseball player.,baseball player,short,baseball player.,
13,8527,free_class_elicitation,1,negative,positive,Kim is looking for a place to live and checks out a villa.,villa,small,villas,0.5119326710700989
13,11840,free_class_elicitation,2,positive,negative,Mika hears somebody playing the violin.,violin,loud,violins,0.6895976066589355
13,7728,free_class_elicitation,3,negative,negative,Tanya sees a penguin at the zoo.,penguin,short,penguins,0.3877726197242737
13,4295,free_class_elicitation,4,negative,neither-nor,Lee is sitting in a classroom.,classroom,quiet,classrooms,0.8148455619812012
13,5458,free_class_elicitation,5,negative,neither-nor,Simon is walking outside and hears the cry of a parrot.,parrot,quiet,parrots,0.6655376553535461
13,4685,free_class_elicitation,6,negative,positive,Jasmine sees an adult named Pat.,adult,short,humans,0.44760048389434814
13,12112,free_class_elicitation,7,positive,neither-nor,Monica steps outside on a day in Fall.,Fall,warm,falls,
13,5986,free_class_elicitation,8,negative,negative,Kathleen is thinking about watching something on Netflix and looks at the duration of a TV show.,TV show,short,shows,
13,5107,free_class_elicitation,9,positive,negative,John is at the butchershop and looks at the price of a piece of pork.,pork,expensive,pork,1.0
13,5977,free_class_elicitation,10,positive,neither-nor,Robert is helping a friend move and picks up a box.,box,heavy,boxes,0.730573832988739
13,6581,free_class_elicitation,11,positive,positive,Jennifer lifts up an adult named Allen.,adult,heavy,adults,0.7610254883766174
13,6184,free_class_elicitation,12,positive,negative,Angela is visiting a friend and sees their pet mouse.,mouse,large,mouses,0.2677677571773529
13,7458,free_class_elicitation,13,negative,neither-nor,Alicia is working in the machine shop and picks up a piece of plastic.,plastic,light,plastic,1.0
13,11037,free_class_elicitation,14,positive,positive,Gabriel looks at the price of a bottle of top-shelf liquor.,bottle of top-shelf liquor,expensive,liquor,
13,4610,free_class_elicitation,15,negative,positive,Tom steps outside during the morning.,the morning,dark,mornings,
13,6858,free_class_elicitation,16,positive,neither-nor,The mailman drops off a package for Stephanie. Stephanie picks it up.,package,heavy,packages,0.7980517745018005
13,7293,free_class_elicitation,17,positive,positive,The waitress brings Alexander his food at the diner. Alexander takes the first bite of his burger.,burger,warm,food,0.40979570150375366
13,4215,free_class_elicitation,18,negative,negative,Cameron is at the zoo watching a slug travel.,slug,slow,slugs,0.5862656235694885
14,23877,free_class_elicitation,1,positive,neither-nor,Maya is visiting a friend and sees their pet cat.,cat,large,cats,0.7323004007339478
14,9311,free_class_elicitation,2,positive,neither-nor,Stephen is walking outside and hears the cry of a parrot.,parrot,loud,birds,0.4827500581741333
14,6799,free_class_elicitation,3,negative,negative,Stephanie steps outside on a day in Winter.,Winter,cold,days,
14,8603,free_class_elicitation,4,positive,positive,The waitress brings Gary his food at the diner. Gary takes the first bite of his burger.,burger,warm,burgers,0.7014809846878052
14,9308,free_class_elicitation,5,negative,neither-nor,Greg takes a first sip from a cup of tea.,tea,cold,teas,0.6107999682426453
14,37218,free_class_elicitation,6,negative,neither-nor,Mika is at the zoo watching an eel travel.,eel,slow,fish,0.41933712363243103
14,12698,free_class_elicitation,7,negative,negative,Jasmine steps outside during the evening.,the evening,dark,times,
14,6210,free_class_elicitation,8,positive,negative,Melinda is thinking about watching something on Netflix and looks at the duration of a TV show.,TV show,long,shows,
14,10245,free_class_elicitation,9,negative,positive,Simon hears somebody playing the drums.,drums,quiet,drums,1.0
14,74736,free_class_elicitation,10,negative,positive,Michelle is looking for a place to live and checks out a villa.,villa,small,villas,0.5119326710700989
14,4219,free_class_elicitation,11,positive,negative,John lifts up a baby named Allen.,baby,heavy,babies,0.7870863676071167
14,4873,free_class_elicitation,12,positive,positive,Kim sees a giraffe at the zoo.,giraffe,tall,animals,0.31947097182273865
14,9091,free_class_elicitation,13,positive,positive,Veronica is working in the machine shop and picks up a piece of steel.,steel,heavy,pieces,0.4560699462890625
14,6473,free_class_elicitation,14,negative,positive,Julia looks at the price of a bottle of top-shelf liquor.,bottle of top-shelf liquor,cheap,bottles,
14,5684,free_class_elicitation,15,negative,neither-nor,The mailman drops off a package for Anthony. Anthony picks it up.,package,light,packages,0.7980517745018005
14,15553,free_class_elicitation,16,positive,negative,Laura is at the butchershop and looks at the price of a piece of pork.,pork,expensive,pork,1.0
14,7998,free_class_elicitation,17,negative,negative,Natalia is sitting in a library.,library,quiet,places,0.38692426681518555
14,6686,free_class_elicitation,18,positive,neither-nor,Alexander sees a baseball player.,baseball player,tall,players,
15,30647,free_class_elicitation,1,positive,neither-nor,Gabriel steps outside during dusk.,dusk,light,times of the day,
15,24856,free_class_elicitation,2,positive,positive,Natalia is looking for a place to live and checks out a villa.,villa,large,villas,0.5119326710700989
15,7744,free_class_elicitation,3,positive,positive,William is at the zoo watching a snake travel.,snake,fast,snakes,0.7458169460296631
15,9432,free_class_elicitation,4,negative,neither-nor,Alicia is helping a friend move and picks up a box.,box,light,boxes,0.730573832988739
15,13488,free_class_elicitation,5,negative,negative,Josh lifts up a baby named Allen.,baby,light,babies,0.7870863676071167
15,11080,free_class_elicitation,6,positive,negative,Simon takes a first sip from a cup of water.,water,hot,drinks,0.48012620210647583
15,7744,free_class_elicitation,7,negative,negative,Cameron is at the butchershop and looks at the price of a piece of pork.,pork,cheap,meats,0.6622257828712463
15,7752,free_class_elicitation,8,positive,negative,Charles sees a child named Pat.,child,tall,children,0.8553194999694824
15,21304,free_class_elicitation,9,negative,positive,Angela hears somebody playing the drums.,drums,quiet,sounds,0.5546292662620544
15,18552,free_class_elicitation,10,positive,neither-nor,John sees a baseball player.,baseball player,tall,baseball players,
15,10720,free_class_elicitation,11,positive,neither-nor,The mailman drops off a package for Michelle. Michelle picks it up.,package,heavy,packages,0.7980517745018005
15,20616,free_class_elicitation,12,negative,positive,Robert looks at the price of a bottle of top-shelf liquor.,bottle of top-shelf liquor,cheap,top-shelf liquors,
15,24448,free_class_elicitation,13,positive,positive,Lee is working in the machine shop and picks up a piece of steel.,steel,heavy,pieces of metal,
15,9264,free_class_elicitation,14,negative,negative,Michael sees a penguin at the zoo.,penguin,short,penguins,0.3877726197242737
15,13728,free_class_elicitation,15,negative,positive,Monica is walking outside and hears the cry of a rooster.,rooster,quiet,times of day,
15,10096,free_class_elicitation,16,negative,neither-nor,Claire steps outside on a day in Fall.,Fall,cold,Fall days,
15,11111,free_class_elicitation,17,negative,neither-nor,Tanya is thinking about watching something on Netflix and looks at the duration of a documentary.,documentary,short,documentaries,0.7954923510551453
15,11537,free_class_elicitation,18,positive,negative,Laura is visiting a friend and sees their pet mouse.,mouse,large,mice,0.6706715226173401
16,15255,free_class_elicitation,1,positive,negative,Gary is looking for a place to live and checks out an apartment.,apartment,large,aparments,
16,11757,free_class_elicitation,2,negative,negative,Simon steps outside during the evening.,the evening,dark,times of day,
16,9631,free_class_elicitation,3,positive,negative,Maya sees a jockey.,jockey,tall,jockies,
16,16366,free_class_elicitation,4,negative,positive,The waitress brings Alicia her food at the diner. Alicia takes the first bite of her burger.,burger,cold,hamburgers,0.6286556720733643
16,8787,free_class_elicitation,5,negative,negative,David is sitting in a library.,library,quiet,places,0.38692426681518555
16,7273,free_class_elicitation,6,positive,positive,Kim is thinking about watching something on Netflix and looks at the duration of a movie.,movie,long,movies,0.8959326148033142
16,4651,free_class_elicitation,7,positive,neither-nor,Claire sees a monkey at the zoo.,monkey,tall,animals,0.4994267523288727
16,7852,free_class_elicitation,8,negative,neither-nor,Robert sees a teenager named Pat.,teenager,short,men,0.5001325011253357
16,8242,free_class_elicitation,9,negative,neither-nor,Tanya steps outside on a day in Fall.,Fall,cold,times of year,
16,11919,free_class_elicitation,10,positive,positive,William is helping a friend move and picks up a piece of furniture.,piece of furniture,heavy,pieces of furniture,
16,4895,free_class_elicitation,11,positive,neither-nor,Eric is visiting a friend and sees their pet cat.,cat,large,cats,0.7323004007339478
16,4307,free_class_elicitation,12,positive,positive,Angela takes a first sip from a cup of coffee.,coffee,hot,drinks,0.7287518978118896
16,8267,free_class_elicitation,13,negative,negative,Greg hears somebody playing the violin.,violin,quiet,instruments,0.5735992193222046
16,9856,free_class_elicitation,14,positive,neither-nor,Natalia is working in the machine shop and picks up a piece of plastic.,plastic,heavy,items in the shop,
16,5759,free_class_elicitation,15,negative,positive,Jasmine is at the zoo watching a snake travel.,snake,slow,animals,0.49764129519462585
16,7654,free_class_elicitation,16,positive,negative,Stephanie is at the butchershop and looks at the price of a piece of pork.,pork,expensive,meat,0.8260456323623657
16,9757,free_class_elicitation,17,negative,neither-nor,Mika lifts up a kid named Allen.,kid,light,people,0.39091283082962036
16,14403,free_class_elicitation,18,negative,positive,Alexander looks at the price of a bottle of top-shelf liquor.,bottle of top-shelf liquor,cheap,bottles of liquor at other places,
17,56313,free_class_elicitation,1,positive,neither-nor,Tom takes a first sip from a cup of tea.,tea,hot,drinks,0.6754350662231445
17,94064,free_class_elicitation,2,negative,negative,Josh hears somebody playing the violin.,violin,quiet,instruments,0.5735992193222046
17,32102,free_class_elicitation,3,positive,neither-nor,Jasmine looks at the price of a bottle of wine.,bottle of wine,expensive,wines,
17,13904,free_class_elicitation,4,positive,negative,Mika is looking for a place to live and checks out an apartment.,apartment,large,apartments,0.7545885443687439
17,13730,free_class_elicitation,5,negative,neither-nor,Alexander is sitting in a classroom.,classroom,quiet,rooms,0.6130567789077759
17,63485,free_class_elicitation,6,negative,negative,Claire is visiting a friend and sees their pet mouse.,mouse,small,mice,0.6706715226173401
17,19739,free_class_elicitation,7,negative,positive,Natalia is at the zoo watching a snake travel.,snake,slow,animals,0.49764129519462585
17,19823,free_class_elicitation,8,positive,positive,Kim is at the butchershop and looks at the price of a piece of steak.,steak,expensive,foods,0.3903997242450714
17,277860,free_class_elicitation,9,negative,neither-nor,Gary is working in the machine shop and picks up a piece of plastic.,plastic,light,plastics ,
17,13093,free_class_elicitation,10,negative,neither-nor,Gabriel is thinking about watching something on Netflix and looks at the duration of a documentary.,documentary,short,documentaries,0.7954923510551453
17,139168,free_class_elicitation,11,positive,negative,Simon steps outside during the evening.,the evening,light,nights,
17,8846,free_class_elicitation,12,positive,neither-nor,Lee is walking outside and hears the cry of a parrot.,parrot,loud,birds,0.4827500581741333
17,7690,free_class_elicitation,13,positive,positive,Daniel lifts up an adult named Allen.,adult,heavy,people,0.46134981513023376
17,13324,free_class_elicitation,14,positive,positive,The waitress brings Maya her food at the diner. Maya takes the first bite of her burger.,burger,warm,foods,0.5431130528450012
17,8286,free_class_elicitation,15,negative,negative,Charles sees a child named Pat.,child,short,kids,0.6554969549179077
17,10028,free_class_elicitation,16,negative,positive,The mailman drops off a box for Monica. Monica picks it up.,box,light,packages,0.4686795771121979
17,6296,free_class_elicitation,17,positive,negative,David sees a jockey.,jockey,tall,jockeys,0.723548948764801
17,8847,free_class_elicitation,18,negative,positive,Kathleen sees a giraffe at the zoo.,giraffe,short,giraffes,0.628443717956543
18,82469,free_class_elicitation,1,positive,positive,Stephanie is working in the machine shop and picks up a piece of steel.,steel,heavy,metals,0.5629696249961853
18,7007,free_class_elicitation,2,positive,negative,Sophie steps outside during the evening.,the evening,light,nights,
18,9205,free_class_elicitation,3,negative,neither-nor,Alexander sees a monkey at the zoo.,monkey,short,animals,0.4994267523288727
18,6564,free_class_elicitation,4,positive,negative,John takes a first sip from a cup of water.,water,hot,drinks,0.48012620210647583
18,24827,free_class_elicitation,5,negative,positive,Daniel is at the butchershop and looks at the price of a piece of steak.,steak,cheap,meats,0.5834958553314209
18,5292,free_class_elicitation,6,negative,neither-nor,Michael sees a teenager named Pat.,teenager,short,people,0.319158136844635
18,11499,free_class_elicitation,7,positive,neither-nor,The waitress brings Robert his food at the diner. Robert takes the first bite of his fruit.,fruit,warm,foods,0.60068678855896
18,7174,free_class_elicitation,8,negative,negative,The mailman drops off an envelope for Lucas. Lucas picks it up.,envelope,light,envelopes,0.7296762466430664
18,7942,free_class_elicitation,9,negative,neither-nor,Josh is at the zoo watching an eel travel.,eel,slow,animals,0.15070052444934845
18,5380,free_class_elicitation,10,positive,positive,Charles steps outside on a day in Summer.,Summer,warm,days,
18,5786,free_class_elicitation,11,negative,positive,Maya is sitting in a gymnasium.,gymnasium,quiet,places,0.15774831175804138
18,6766,free_class_elicitation,12,negative,negative,Angela is helping a friend move and picks up a piece of clothing.,piece of clothing,light,clothes,
18,4792,free_class_elicitation,13,positive,positive,Lee is visiting a friend and sees their pet dog.,dog,large,pets,0.5988808274269104
18,6288,free_class_elicitation,14,negative,negative,Julia is looking for a place to live and checks out an apartment.,apartment,small,apartments,0.7545885443687439
18,5534,free_class_elicitation,15,positive,negative,Kathleen looks at the price of a box of wine.,box of wine,expensive,wines,
18,6548,free_class_elicitation,16,positive,neither-nor,Kim is walking outside and hears the cry of a parrot.,parrot,loud,birds,0.4827500581741333
18,5225,free_class_elicitation,17,negative,positive,Stephen is thinking about watching something on Netflix and looks at the duration of a movie.,movie,short,movies,0.8959326148033142
18,4320,free_class_elicitation,18,positive,neither-nor,Greg lifts up a kid named Allen.,kid,heavy,kids,0.7564833760261536
19,61880,free_class_elicitation,1,positive,neither-nor,Laura steps outside on a day in Fall.,Fall,warm,surroundings,
19,23431,free_class_elicitation,2,negative,negative,Josh is at the zoo watching a slug travel.,slug,slow,animals,0.09944688528776169
19,12772,free_class_elicitation,3,positive,negative,Jasmine sees a child named Pat.,child,tall,children,0.8553194999694824
19,12861,free_class_elicitation,4,positive,positive,Kim looks at the price of a bottle of top-shelf liquor.,bottle of top-shelf liquor,expensive,liquour,
19,164240,free_class_elicitation,5,positive,neither-nor,Natalia is looking for a place to live and checks out a townhouse.,townhouse,large,houses of its kind,
19,20277,free_class_elicitation,6,negative,positive,Greg takes a first sip from a cup of coffee.,coffee,cold,coffee he has taken,
19,11956,free_class_elicitation,7,negative,neither-nor,Angela is visiting a friend and sees their pet cat.,cat,small,cats,0.7323004007339478
19,17263,free_class_elicitation,8,positive,negative,Anthony is thinking about watching something on Netflix and looks at the duration of a TV show.,TV show,long,movie durations,
19,9484,free_class_elicitation,9,positive,negative,Melinda is walking outside and hears the cry of a hummingbird.,hummingbird,loud,birds,0.3009658455848694
19,16842,free_class_elicitation,10,negative,negative,Jennifer is working in the machine shop and picks up a piece of styrofoam.,styrofoam,light,styrofoams,
19,15852,free_class_elicitation,11,positive,positive,The mailman drops off a box for Charles. Charles picks it up.,box,heavy,boxes,0.730573832988739
19,13268,free_class_elicitation,12,positive,neither-nor,The waitress brings Lucas his food at the diner. Lucas takes the first bite of his fruit.,fruit,warm,fruits he has taken,
19,13896,free_class_elicitation,13,negative,positive,Michelle sees a basketball player.,basketball player,short,basketball players,
19,27586,free_class_elicitation,14,positive,positive,Stephen is helping a friend move and picks up a piece of furniture.,piece of furniture,heavy,furniture ,
19,11657,free_class_elicitation,15,negative,neither-nor,Sophie lifts up a kid named Allen.,kid,light,children,0.4446779489517212
19,17305,free_class_elicitation,16,negative,positive,William steps outside during the morning.,the morning,dark,time of the day,
19,18713,free_class_elicitation,17,negative,neither-nor,Alexander hears somebody playing the piano.,piano,quiet,piano sounds,
19,9422,free_class_elicitation,18,negative,negative,Monica sees a penguin at the zoo.,penguin,short,penguins ,
20,13179,free_class_elicitation,1,positive,neither-nor,Maya steps outside on a day in Fall.,Fall,warm,days,
20,18391,free_class_elicitation,2,negative,negative,Robert is thinking about watching something on Netflix and looks at the duration of a TV show.,TV show,short,tv shows,
20,22016,free_class_elicitation,3,negative,neither-nor,Angela is sitting in a classroom.,classroom,quiet,times in the classroom,
20,20540,free_class_elicitation,4,negative,neither-nor,Veronica is at the butchershop and looks at the price of a piece of chicken.,chicken,cheap,butchershops ,
20,14464,free_class_elicitation,5,positive,neither-nor,Charles is at the zoo watching an eel travel.,eel,fast,sea life,
20,10564,free_class_elicitation,6,negative,positive,Cameron is looking for a place to live and checks out a villa.,villa,small,villa&quotechars,
20,12853,free_class_elicitation,7,positive,positive,John is helping a friend move and picks up a piece of furniture.,piece of furniture,heavy,furniture ,
20,42080,free_class_elicitation,8,positive,negative,Daniel takes a first sip from a cup of water.,water,hot,time he has drunk water ,
20,14787,free_class_elicitation,9,positive,positive,Michelle hears somebody playing the drums.,drums,loud,instruments ,
20,11100,free_class_elicitation,10,negative,positive,Lee is visiting a friend and sees their pet dog.,dog,small,dogs,0.8344309329986572
20,10632,free_class_elicitation,11,negative,positive,Lucas lifts up an adult named Allen.,adult,light,people,0.46134981513023376
20,47112,free_class_elicitation,12,negative,negative,Mika is walking outside and hears the cry of a hummingbird.,hummingbird,quiet,days outside ,
20,13864,free_class_elicitation,13,positive,negative,The waitress brings Alexander his food at the diner. Alexander takes the first bite of his ice cream.,ice cream,warm,food,
20,14392,free_class_elicitation,14,positive,positive,Julia steps outside during the morning.,the morning,light,days outside,
20,41752,free_class_elicitation,15,negative,neither-nor,The mailman drops off a package for Jennifer. Jennifer picks it up.,package,light,times of the day,
20,99495,free_class_elicitation,16,negative,negative,Eric sees a penguin at the zoo.,penguin,short,penguin&quotechars ,
20,19032,free_class_elicitation,17,positive,neither-nor,Jasmine sees a teenager named Pat.,teenager,tall,teenagers his age,
20,42703,free_class_elicitation,18,positive,negative,Laura looks at the price of a box of wine.,box of wine,expensive,wine available ,
21,108673,free_class_elicitation,1,negative,positive,Melinda is at the zoo watching a snake travel.,snake,slow,animals moving at the zoo,
21,45170,free_class_elicitation,2,positive,negative,Kim sees a penguin at the zoo.,penguin,tall,penguins,0.3877726197242737
21,23678,free_class_elicitation,3,positive,positive,Sophie sees an adult named Pat.,adult,tall,human beings,
21,32825,free_class_elicitation,4,negative,negative,Greg is sitting in a library.,library,quiet,other places Greg hangs out at,
21,29119,free_class_elicitation,5,positive,neither-nor,William is helping a friend move and picks up a box.,box,heavy,moving boxed he has picked up,
21,20067,free_class_elicitation,6,positive,neither-nor,Jennifer is visiting a friend and sees their pet cat.,cat,large,cats,0.7323004007339478
21,18044,free_class_elicitation,7,positive,negative,Jasmine is thinking about watching something on Netflix and looks at the duration of a TV show.,TV show,long,TV shows on Netflix,
21,12101,free_class_elicitation,8,positive,negative,Maya lifts up a baby named Allen.,baby,heavy,babies weight,
21,20263,free_class_elicitation,9,negative,negative,Josh looks at the price of a box of wine.,box of wine,cheap,boxes of wine Josh has bought or encountered,
21,17864,free_class_elicitation,10,negative,positive,John is looking for a place to live and checks out a villa.,villa,small,villa John has seen or been to,
21,20681,free_class_elicitation,11,negative,neither-nor,The waitress brings Veronica her food at the diner. Veronica takes the first bite of her fruit.,fruit,cold,other fruit and food she has eaten in the past,
21,19720,free_class_elicitation,12,negative,negative,David hears somebody playing the violin.,violin,quiet,violin David has heard in the past,
21,21761,free_class_elicitation,13,negative,neither-nor,Eric steps outside during dusk.,dusk,dark,times Eric has stepped outside during dusk,
21,17516,free_class_elicitation,14,positive,positive,Michelle steps outside on a day in Summer.,Summer,warm,days of summer Michelle has experienced,
21,34611,free_class_elicitation,15,negative,positive,The mailman drops off a box for Cameron. Cameron picks it up.,box,light,boxes of mail Cameron has picked up,
21,62920,free_class_elicitation,16,positive,neither-nor,Robert is at the butchershop and looks at the price of a piece of chicken.,chicken,expensive,prices of a piece of chicken Robert has bought before,
21,15953,free_class_elicitation,17,positive,positive,Anthony is working in the machine shop and picks up a piece of steel.,steel,heavy,pieces of steel,
21,16370,free_class_elicitation,18,negative,neither-nor,Tanya is walking outside and hears the cry of a parrot.,parrot,quiet,parrots Tanya has heard before,
22,30715,free_class_elicitation,1,positive,negative,Gary is looking for a place to live and checks out an apartment.,apartment,large,It&quotechars small,
22,71765,free_class_elicitation,2,positive,positive,Daniel is thinking about watching something on Netflix and looks at the duration of a movie.,movie,long,It&quotecharshort,
22,98718,free_class_elicitation,3,positive,neither-nor,Alicia is walking outside and hears the cry of a parrot.,parrot,loud,soft,0.14929085969924927
22,31773,free_class_elicitation,4,positive,positive,Anthony is working in the machine shop and picks up a piece of steel.,steel,heavy,light,0.46213221549987793
22,42593,free_class_elicitation,5,negative,positive,Kathleen is at the butchershop and looks at the price of a piece of steak.,steak,cheap,expensive,0.24255885183811188
22,40424,free_class_elicitation,6,negative,positive,Maya steps outside on a day in Summer.,Summer,cold,warm,
22,55382,free_class_elicitation,7,positive,negative,Michelle looks at the price of a box of wine.,box of wine,expensive,cheap,
22,18476,free_class_elicitation,8,negative,neither-nor,The waitress brings Charles his food at the diner. Charles takes the first bite of his fruit.,fruit,cold,hot,0.4452960193157196
22,41616,free_class_elicitation,9,positive,neither-nor,Alexander is sitting in a classroom.,classroom,loud,quite,0.2201623171567917
22,39076,free_class_elicitation,10,negative,negative,Tom is helping a friend move and picks up a piece of clothing.,piece of clothing,light,darkness,
22,23489,free_class_elicitation,11,positive,neither-nor,Natalia sees a baseball player.,baseball player,tall,small,
22,101555,free_class_elicitation,12,positive,negative,Jasmine hears somebody playing the violin.,violin,loud,quite,0.20111316442489624
22,22877,free_class_elicitation,13,negative,negative,David sees a penguin at the zoo.,penguin,short,long,0.09982800483703613
22,7484,free_class_elicitation,14,negative,neither-nor,Stephen steps outside during dusk.,dusk,dark,light,0.32834160327911377
22,8224,free_class_elicitation,15,negative,positive,Greg is visiting a friend and sees their pet dog.,dog,small,tall,0.2662132978439331
22,5890,free_class_elicitation,16,positive,positive,The mailman drops off a box for Jennifer. Jennifer picks it up.,box,heavy,light,0.4008866548538208
22,7329,free_class_elicitation,17,negative,negative,Stephanie takes a first sip from a cup of water.,water,cold,hot,0.6178728342056274
22,23382,free_class_elicitation,18,negative,neither-nor,Simon lifts up a kid named Allen.,kid,light,dark ness,
23,11679,free_class_elicitation,1,negative,neither-nor,Melinda lifts up a kid named Allen.,kid,light,kids,0.7564833760261536
23,11337,free_class_elicitation,2,positive,negative,Monica is looking for a place to live and checks out an apartment.,apartment,large,apartments,0.7545885443687439
23,12307,free_class_elicitation,3,negative,positive,Alexander sees an adult named Pat.,adult,short,adult men,
23,15683,free_class_elicitation,4,positive,neither-nor,The waitress brings Michael his food at the diner. Michael takes the first bite of his fruit.,fruit,warm,food,0.573560357093811
23,14392,free_class_elicitation,5,negative,negative,Gabriel sees a jockey.,jockey,short,jockeys,0.723548948764801
23,104219,free_class_elicitation,6,positive,positive,Julia is helping a friend move and picks up a piece of furniture.,piece of furniture,heavy,furniture,
23,9309,free_class_elicitation,7,positive,neither-nor,Veronica steps outside on a day in Fall.,Fall,warm,seasons,
23,10727,free_class_elicitation,8,positive,positive,Lee is sitting in a gymnasium.,gymnasium,loud,events,0.18002797663211823
23,19275,free_class_elicitation,9,negative,negative,Anthony is thinking about watching something on Netflix and looks at the duration of a TV show.,TV show,short,television shows,
23,8224,free_class_elicitation,10,negative,neither-nor,Laura hears somebody playing the piano.,piano,quiet,instruments,0.5774009823799133
23,22986,free_class_elicitation,11,positive,positive,Maya steps outside during the morning.,the morning,light,times,
23,3779,free_class_elicitation,12,positive,negative,Mika is walking outside and hears the cry of a hummingbird.,hummingbird,loud,birds,0.3009658455848694
23,7055,free_class_elicitation,13,negative,positive,The mailman drops off a box for Stephen. Stephen picks it up.,box,light,packages,0.4686795771121979
23,11812,free_class_elicitation,14,positive,neither-nor,Josh looks at the price of a bottle of wine.,bottle of wine,expensive,bottles ,
23,11958,free_class_elicitation,15,positive,negative,Claire takes a first sip from a cup of water.,water,hot,beverages,0.34216341376304626
23,12245,free_class_elicitation,16,negative,negative,Jennifer is at the zoo watching a slug travel.,slug,slow,insects,0.1663007289171219
23,4490,free_class_elicitation,17,negative,neither-nor,John sees a monkey at the zoo.,monkey,short,animals,0.4994267523288727
23,12488,free_class_elicitation,18,negative,positive,Tom is at the butchershop and looks at the price of a piece of steak.,steak,cheap,cuts of mean,
24,7847,free_class_elicitation,1,negative,negative,Sophie looks at the price of a box of wine.,box of wine,cheap,wines,
24,12784,free_class_elicitation,2,positive,positive,Daniel steps outside during the morning.,the morning,light,mornings,
24,4467,free_class_elicitation,3,negative,positive,Greg is visiting a friend and sees their pet dog.,dog,small,dogs,0.8344309329986572
24,8850,free_class_elicitation,4,negative,positive,The waitress brings Tanya her food at the diner. Tanya takes the first bite of her burger.,burger,cold,hot burgers,
24,11321,free_class_elicitation,5,positive,neither-nor,Alicia takes a first sip from a cup of tea.,tea,hot,teas,0.6107999682426453
24,12539,free_class_elicitation,6,positive,neither-nor,Stephanie is looking for a place to live and checks out a townhouse.,townhouse,large,townhouses,0.6502399444580078
24,6175,free_class_elicitation,7,negative,neither-nor,Laura is sitting in a classroom.,classroom,quiet,classrooms,0.8148455619812012
24,9713,free_class_elicitation,8,positive,negative,Kim is at the butchershop and looks at the price of a piece of pork.,pork,expensive,pieces of pork,
24,8074,free_class_elicitation,9,negative,positive,Natalia is working in the machine shop and picks up a piece of steel.,steel,light,pieces of steel,
24,7489,free_class_elicitation,10,negative,negative,Robert steps outside on a day in Winter.,Winter,cold,days in winter,
24,8336,free_class_elicitation,11,negative,negative,Eric hears somebody playing the violin.,violin,quiet,violin sounds,
24,10905,free_class_elicitation,12,positive,positive,Melinda sees a giraffe at the zoo.,giraffe,tall,giraffes,0.628443717956543
24,7625,free_class_elicitation,13,positive,neither-nor,The mailman drops off a package for Stephen. Stephen picks it up.,package,heavy,packages,0.7980517745018005
24,10370,free_class_elicitation,14,positive,negative,Gary is helping a friend move and picks up a piece of clothing.,piece of clothing,heavy,pieces of clothing,
24,14233,free_class_elicitation,15,positive,negative,Charles is walking outside and hears the cry of a hummingbird.,hummingbird,loud,hummingbirds,0.5391594171524048
24,5721,free_class_elicitation,16,negative,neither-nor,Simon sees a teenager named Pat.,teenager,short,people,0.319158136844635
24,8033,free_class_elicitation,17,positive,positive,Jennifer sees a basketball player.,basketball player,tall,basketball players,
24,16770,free_class_elicitation,18,negative,neither-nor,Julia is at the zoo watching an eel travel.,eel,slow,eel movement,
25,11008,free_class_elicitation,1,positive,positive,Julia is at the zoo watching a snake travel.,snake,fast,animals,0.49764129519462585
25,9637,free_class_elicitation,2,positive,neither-nor,Josh is walking outside and hears the cry of a parrot.,parrot,loud,sounds,0.16995711624622345
25,10786,free_class_elicitation,3,negative,neither-nor,Michelle is thinking about watching something on Netflix and looks at the duration of a documentary.,documentary,short,movies,0.6490799188613892
25,7454,free_class_elicitation,4,positive,positive,Alexander is visiting a friend and sees their pet dog.,dog,large,dogs,0.8344309329986572
25,17946,free_class_elicitation,5,positive,negative,The waitress brings Jennifer her food at the diner. Jennifer takes the first bite of her ice cream.,ice cream,warm,deserts,
25,15293,free_class_elicitation,6,negative,neither-nor,Tom steps outside during dusk.,dusk,dark,times of day,
25,7301,free_class_elicitation,7,negative,neither-nor,Anthony lifts up a kid named Allen.,kid,light,kids,0.7564833760261536
25,14792,free_class_elicitation,8,negative,positive,Simon looks at the price of a bottle of top-shelf liquor.,bottle of top-shelf liquor,cheap,liquors,
25,9433,free_class_elicitation,9,negative,negative,The mailman drops off an envelope for Michael. Michael picks it up.,envelope,light,envelopes,0.7296762466430664
25,6369,free_class_elicitation,10,positive,negative,Jasmine sees a child named Pat.,child,tall,children,0.8553194999694824
25,8639,free_class_elicitation,11,positive,neither-nor,Eric is looking for a place to live and checks out a townhouse.,townhouse,large,townhouses,0.6502399444580078
25,5959,free_class_elicitation,12,negative,negative,Veronica is at the butchershop and looks at the price of a piece of pork.,pork,cheap,meats,0.6622257828712463
25,7619,free_class_elicitation,13,negative,positive,Greg is sitting in a gymnasium.,gymnasium,quiet,places,0.15774831175804138
25,6350,free_class_elicitation,14,positive,neither-nor,John is working in the machine shop and picks up a piece of plastic.,plastic,heavy,plastics,0.46692290902137756
25,12632,free_class_elicitation,15,positive,negative,Natalia takes a first sip from a cup of water.,water,hot,liquids,0.46160197257995605
25,5327,free_class_elicitation,16,negative,negative,Gabriel sees a jockey.,jockey,short,people,0.10459363460540771
25,9063,free_class_elicitation,17,negative,positive,Lee sees a giraffe at the zoo.,giraffe,short,giraffes,0.628443717956543
25,8465,free_class_elicitation,18,positive,positive,Claire is helping a friend move and picks up a piece of furniture.,piece of furniture,heavy,pieces of furniture,
26,10230,free_class_elicitation,1,positive,positive,The mailman drops off a box for Charles. Charles picks it up.,box,heavy,boxes,0.730573832988739
26,61233,free_class_elicitation,2,negative,positive,Tom is helping a friend move and picks up a piece of furniture.,piece of furniture,light,furniture,
26,6705,free_class_elicitation,3,negative,positive,Melinda hears somebody playing the drums.,drums,quiet,drums,1.0
26,6541,free_class_elicitation,4,positive,neither-nor,Michelle steps outside on a day in Fall.,Fall,warm,fall days,
26,5800,free_class_elicitation,5,negative,positive,Michael is thinking about watching something on Netflix and looks at the duration of a movie.,movie,short,movies,0.8959326148033142
26,14683,free_class_elicitation,6,positive,negative,Mika takes a first sip from a cup of water.,water,hot,cups of water,
26,7770,free_class_elicitation,7,positive,positive,Sophie steps outside during the morning.,the morning,light,mornings,
26,7851,free_class_elicitation,8,positive,positive,Daniel sees an adult named Pat.,adult,tall,adults,0.7610254883766174
26,6842,free_class_elicitation,9,positive,negative,Veronica sees a jockey.,jockey,tall,jockeys,0.723548948764801
26,2966,free_class_elicitation,10,positive,neither-nor,Kim is visiting a friend and sees their pet cat.,cat,large,cat,1.0
26,5053,free_class_elicitation,11,negative,negative,Stephanie is at the zoo watching a slug travel.,slug,slow,slugs,0.5862656235694885
26,8225,free_class_elicitation,12,positive,neither-nor,Monica is at the butchershop and looks at the price of a piece of chicken.,chicken,expensive,chicken,1.0
26,4720,free_class_elicitation,13,negative,neither-nor,Kathleen lifts up a kid named Allen.,kid,light,kids,0.7564833760261536
26,6771,free_class_elicitation,14,negative,neither-nor,Tanya is looking for a place to live and checks out a townhouse.,townhouse,small,townhouses,0.6502399444580078
26,9926,free_class_elicitation,15,negative,neither-nor,Alicia is working in the machine shop and picks up a piece of plastic.,plastic,light,pieces of plastic,
26,6360,free_class_elicitation,16,negative,negative,Gary sees a penguin at the zoo.,penguin,short,penguins,0.3877726197242737
26,6824,free_class_elicitation,17,negative,negative,Cameron is walking outside and hears the cry of a hummingbird.,hummingbird,quiet,hummingbirds,0.5391594171524048
26,4328,free_class_elicitation,18,positive,negative,Simon looks at the price of a box of wine.,box of wine,expensive,wines,
27,9430,free_class_elicitation,1,positive,neither-nor,Sophie steps outside on a day in Fall.,Fall,warm,days,
27,22811,free_class_elicitation,2,positive,negative,The waitress brings Maya her food at the diner. Maya takes the first bite of her ice cream.,ice cream,warm,ice creams,
27,12386,free_class_elicitation,3,negative,positive,Robert sees a basketball player.,basketball player,short,players,
27,5401,free_class_elicitation,4,positive,positive,Stephen sees a giraffe at the zoo.,giraffe,tall,animals,0.31947097182273865
27,6462,free_class_elicitation,5,negative,negative,Monica lifts up a baby named Allen.,baby,light,babies,0.7870863676071167
27,12238,free_class_elicitation,6,positive,negative,The mailman drops off an envelope for David. David picks it up.,envelope,heavy,envelopes,0.7296762466430664
27,13998,free_class_elicitation,7,negative,positive,Tom is walking outside and hears the cry of a rooster.,rooster,quiet,chickens,0.28891631960868835
27,9525,free_class_elicitation,8,positive,positive,Natalia is at the butchershop and looks at the price of a piece of steak.,steak,expensive,meat types,
27,7206,free_class_elicitation,9,positive,neither-nor,Eric is looking for a place to live and checks out a townhouse.,townhouse,large,houses,0.4400395452976227
27,16525,free_class_elicitation,10,negative,neither-nor,Greg hears somebody playing the piano.,piano,quiet,music instruments,
27,6299,free_class_elicitation,11,negative,negative,Alexander steps outside during the evening.,the evening,dark,nights,
27,9865,free_class_elicitation,12,positive,positive,Jennifer looks at the price of a bottle of top-shelf liquor.,bottle of top-shelf liquor,expensive,liquors,
27,6501,free_class_elicitation,13,positive,neither-nor,Josh is thinking about watching something on Netflix and looks at the duration of a documentary.,documentary,long,movies,0.6490799188613892
27,7665,free_class_elicitation,14,negative,negative,Cameron is helping a friend move and picks up a piece of clothing.,piece of clothing,light,clothes,
27,4811,free_class_elicitation,15,negative,positive,Mika is working in the machine shop and picks up a piece of steel.,steel,light,metals,0.5629696249961853
27,11981,free_class_elicitation,16,positive,negative,John is at the zoo watching a slug travel.,slug,fast,slugs,0.5862656235694885
27,6035,free_class_elicitation,17,negative,neither-nor,Stephanie sees a teenager named Pat.,teenager,short,people,0.319158136844635
27,5014,free_class_elicitation,18,negative,neither-nor,Michael is sitting in a classroom.,classroom,quiet,classes,0.6556843519210815
28,13991,free_class_elicitation,1,positive,negative,The waitress brings Greg his food at the diner. Greg takes the first bite of his ice cream.,ice cream,warm,ice creams,
28,11885,free_class_elicitation,2,positive,positive,Maya is sitting in a gymnasium.,gymnasium,loud,places,0.15774831175804138
28,8375,free_class_elicitation,3,negative,negative,Kathleen sees a penguin at the zoo.,penguin,short,penguins,0.3877726197242737
28,14528,free_class_elicitation,4,negative,neither-nor,Jennifer is walking outside and hears the cry of a parrot.,parrot,quiet,parrots cry,
28,19542,free_class_elicitation,5,negative,neither-nor,Alicia is working in the machine shop and picks up a piece of plastic.,plastic,light,items ,
28,9087,free_class_elicitation,6,negative,positive,Alexander is at the butchershop and looks at the price of a piece of steak.,steak,cheap,steaks,0.8130353093147278
28,60361,free_class_elicitation,7,negative,negative,Charles lifts up a baby named Allen.,baby,light,babies,0.7870863676071167
28,8413,free_class_elicitation,8,negative,negative,Jasmine sees a jockey.,jockey,short,jockies,
28,10517,free_class_elicitation,9,positive,neither-nor,Angela sees a teenager named Pat.,teenager,tall,people,0.319158136844635
28,19671,free_class_elicitation,10,positive,negative,Julia is thinking about watching something on Netflix and looks at the duration of a TV show.,TV show,long,tv shows,
28,55800,free_class_elicitation,11,negative,positive,Melinda is looking for a place to live and checks out a villa.,villa,small,houses,0.3887690305709839
28,8586,free_class_elicitation,12,negative,positive,Stephen steps outside on a day in Summer.,Summer,cold,days,
28,50802,free_class_elicitation,13,positive,positive,Josh steps outside during the morning.,the morning,light,places,
28,5423,free_class_elicitation,14,negative,neither-nor,William is helping a friend move and picks up a box.,box,light,boxes,0.730573832988739
28,10489,free_class_elicitation,15,positive,positive,Kim looks at the price of a bottle of top-shelf liquor.,bottle of top-shelf liquor,expensive,liquors,
28,11702,free_class_elicitation,16,positive,neither-nor,Gary is at the zoo watching an eel travel.,eel,fast,animals,0.15070052444934845
28,5619,free_class_elicitation,17,positive,neither-nor,Sophie is visiting a friend and sees their pet cat.,cat,large,cats,0.7323004007339478
28,9357,free_class_elicitation,18,positive,negative,Michelle takes a first sip from a cup of water.,water,hot,water,1.0
29,23057,free_class_elicitation,1,positive,negative,Natalia is working in the machine shop and picks up a piece of styrofoam.,styrofoam,heavy,pieces of styrofoam,
29,19522,free_class_elicitation,2,positive,negative,Eric is thinking about watching something on Netflix and looks at the duration of a TV show.,TV show,long,TV shows,
29,17674,free_class_elicitation,3,positive,positive,Gabriel is walking outside and hears the cry of a rooster.,rooster,loud,sounds animals make,
29,12033,free_class_elicitation,4,negative,negative,Claire is sitting in a library.,library,quiet,places to study,
29,6730,free_class_elicitation,5,negative,neither-nor,Josh sees a teenager named Pat.,teenager,short,people,0.319158136844635
29,18223,free_class_elicitation,6,negative,negative,The waitress brings Cameron his food at the diner. Cameron takes the first bite of his ice cream.,ice cream,cold,foods people eat,
29,11447,free_class_elicitation,7,negative,positive,Alexander hears somebody playing the drums.,drums,quiet,music people play,
29,12495,free_class_elicitation,8,negative,negative,The mailman drops off an envelope for Melinda. Melinda picks it up.,envelope,light,pieces of mail,
29,11397,free_class_elicitation,9,positive,neither-nor,Laura steps outside on a day in Fall.,Fall,warm,days in Fall,
29,13769,free_class_elicitation,10,positive,negative,Maya is at the butchershop and looks at the price of a piece of pork.,pork,expensive,cuts of meat,
29,12168,free_class_elicitation,11,positive,neither-nor,Stephen sees a monkey at the zoo.,monkey,tall,monkeys,0.726420521736145
29,20822,free_class_elicitation,12,positive,positive,Tanya steps outside during the morning.,the morning,light,mornings,
29,10101,free_class_elicitation,13,positive,positive,Lucas lifts up an adult named Allen.,adult,heavy,adult persons,
29,9632,free_class_elicitation,14,negative,positive,Greg sees a basketball player.,basketball player,short,basketball players,
29,10284,free_class_elicitation,15,positive,neither-nor,Angela is visiting a friend and sees their pet cat.,cat,large,pet cats,
29,11523,free_class_elicitation,16,negative,neither-nor,Gary takes a first sip from a cup of tea.,tea,cold,cups of tea,
29,11259,free_class_elicitation,17,negative,positive,Alicia is helping a friend move and picks up a piece of furniture.,piece of furniture,light,pieces of furniture,
29,7530,free_class_elicitation,18,negative,neither-nor,Anthony looks at the price of a bottle of wine.,bottle of wine,cheap,bottles of wine,
30,22078,free_class_elicitation,1,positive,neither-nor,David is working in the machine shop and picks up a piece of plastic.,plastic,heavy,pieces of objects,
30,7074,free_class_elicitation,2,positive,positive,Monica is looking for a place to live and checks out a villa.,villa,large,villas,0.5119326710700989
30,10863,free_class_elicitation,3,positive,negative,Melinda sees a child named Pat.,child,tall,children,0.8553194999694824
30,7670,free_class_elicitation,4,negative,neither-nor,Claire steps outside on a day in Fall.,Fall,cold,fall days,
30,9372,free_class_elicitation,5,negative,positive,Eric is walking outside and hears the cry of a rooster.,rooster,quiet,roosters,0.3816651701927185
30,6986,free_class_elicitation,6,positive,negative,Jasmine is at the zoo watching a slug travel.,slug,fast,slugs,0.5862656235694885
30,10125,free_class_elicitation,7,negative,neither-nor,Kim is thinking about watching something on Netflix and looks at the duration of a documentary.,documentary,short,documentaries,0.7954923510551453
30,4899,free_class_elicitation,8,negative,positive,Tom hears somebody playing the drums.,drums,quiet,drums,1.0
30,8028,free_class_elicitation,9,negative,negative,The mailman drops off an envelope for Greg. Greg picks it up.,envelope,light,objects,0.28309333324432373
30,11376,free_class_elicitation,10,positive,positive,Lee looks at the price of a bottle of top-shelf liquor.,bottle of top-shelf liquor,expensive,liqours,
30,6169,free_class_elicitation,11,positive,negative,Laura lifts up a baby named Allen.,baby,heavy,babies,0.7870863676071167
30,6757,free_class_elicitation,12,negative,negative,Maya sees a penguin at the zoo.,penguin,short,penguins,0.3877726197242737
30,10184,free_class_elicitation,13,positive,neither-nor,Angela takes a first sip from a cup of tea.,tea,hot,teas,0.6107999682426453
30,4819,free_class_elicitation,14,positive,neither-nor,William is helping a friend move and picks up a box.,box,heavy,boxes,0.730573832988739
30,5483,free_class_elicitation,15,negative,positive,Stephen is at the butchershop and looks at the price of a piece of steak.,steak,cheap,steaks,0.8130353093147278
30,4857,free_class_elicitation,16,negative,neither-nor,Veronica is visiting a friend and sees their pet cat.,cat,small,cats,0.7323004007339478
30,5005,free_class_elicitation,17,positive,positive,The waitress brings Mika her food at the diner. Mika takes the first bite of her burger.,burger,warm,burgers,0.7014809846878052
30,7227,free_class_elicitation,18,negative,negative,Stephanie steps outside during the evening.,the evening,dark,times of day,
31,14607,free_class_elicitation,1,positive,negative,Monica steps outside during the evening.,the evening,light,nights,
31,6766,free_class_elicitation,2,negative,positive,Stephanie is at the butchershop and looks at the price of a piece of steak.,steak,cheap,steaks,0.8130353093147278
31,6822,free_class_elicitation,3,negative,positive,Lucas takes a first sip from a cup of coffee.,coffee,cold,coffee,1.0
31,5360,free_class_elicitation,4,positive,positive,Jasmine is looking for a place to live and checks out a villa.,villa,large,villas,0.5119326710700989
31,6855,free_class_elicitation,5,negative,negative,The mailman drops off an envelope for John. John picks it up.,envelope,light,envelopes,0.7296762466430664
31,6057,free_class_elicitation,6,negative,neither-nor,Josh is sitting in a classroom.,classroom,quiet,classrooms,0.8148455619812012
31,8543,free_class_elicitation,7,negative,negative,Charles is thinking about watching something on Netflix and looks at the duration of a TV show.,TV show,short,tv shows,
31,58802,free_class_elicitation,8,positive,positive,Eric is helping a friend move and picks up a piece of furniture.,piece of furniture,heavy,furniture,
31,6560,free_class_elicitation,9,positive,neither-nor,Cameron sees a monkey at the zoo.,monkey,tall,monkeys,0.726420521736145
31,10036,free_class_elicitation,10,positive,negative,The waitress brings Natalia her food at the diner. Natalia takes the first bite of her ice cream.,ice cream,warm,cold desserts,
31,8076,free_class_elicitation,11,negative,positive,Maya steps outside on a day in Summer.,Summer,cold,summer days,
31,4727,free_class_elicitation,12,negative,neither-nor,Robert is visiting a friend and sees their pet cat.,cat,small,cats,0.7323004007339478
31,7323,free_class_elicitation,13,positive,neither-nor,Julia sees a baseball player.,baseball player,tall,baseball players,
31,4770,free_class_elicitation,14,negative,neither-nor,Simon lifts up a kid named Allen.,kid,light,kids,0.7564833760261536
31,4864,free_class_elicitation,15,positive,positive,Mika is walking outside and hears the cry of a rooster.,rooster,loud,roosters,0.3816651701927185
31,5775,free_class_elicitation,16,positive,neither-nor,Daniel looks at the price of a bottle of wine.,bottle of wine,expensive,wine,
31,4456,free_class_elicitation,17,positive,negative,David hears somebody playing the violin.,violin,loud,violions,
31,4880,free_class_elicitation,18,negative,negative,Laura is at the zoo watching a slug travel.,slug,slow,slugs,0.5862656235694885
32,18643,free_class_elicitation,1,positive,neither-nor,Veronica is looking for a place to live and checks out a townhouse.,townhouse,large,townhouses,0.6502399444580078
32,11701,free_class_elicitation,2,negative,neither-nor,The mailman drops off a package for Michael. Michael picks it up.,package,light,packages,0.7980517745018005
32,9594,free_class_elicitation,3,negative,negative,David sees a penguin at the zoo.,penguin,short,penguins,0.3877726197242737
32,14437,free_class_elicitation,4,positive,negative,Jasmine steps outside during the evening.,the evening,light,evenings,
32,11499,free_class_elicitation,5,positive,positive,Claire is visiting a friend and sees their pet dog.,dog,large,dogs,0.8344309329986572
32,14672,free_class_elicitation,6,positive,negative,The waitress brings Melinda her food at the diner. Melinda takes the first bite of her ice cream.,ice cream,warm,ice creams,
32,18819,free_class_elicitation,7,negative,positive,John hears somebody playing the drums.,drums,quiet,people playing the drums,
32,7549,free_class_elicitation,8,positive,positive,Kim sees an adult named Pat.,adult,tall,adults,0.7610254883766174
32,7126,free_class_elicitation,9,positive,neither-nor,Mika lifts up a kid named Allen.,kid,heavy,kids,0.7564833760261536
32,8534,free_class_elicitation,10,negative,negative,Lee takes a first sip from a cup of water.,water,cold,cups of water,
32,8259,free_class_elicitation,11,positive,positive,Robert is sitting in a gymnasium.,gymnasium,loud,gymnasiums,0.6030492186546326
32,8441,free_class_elicitation,12,negative,positive,Kim is helping a friend move and picks up a piece of furniture.,piece of furniture,light,pieces of furniture,
32,11080,free_class_elicitation,13,positive,negative,Natalia is at the butchershop and looks at the price of a piece of pork.,pork,expensive,pieces of pork,
32,5662,free_class_elicitation,14,negative,positive,Tom is thinking about watching something on Netflix and looks at the duration of a movie.,movie,short,movies,0.8959326148033142
32,7907,free_class_elicitation,15,positive,neither-nor,Greg sees a baseball player.,baseball player,tall,baseball players,
32,7824,free_class_elicitation,16,negative,neither-nor,Eric is working in the machine shop and picks up a piece of plastic.,plastic,light,pieces of plastic,
32,7392,free_class_elicitation,17,negative,negative,Stephen is at the zoo watching a slug travel.,slug,slow,slugs,0.5862656235694885
32,10086,free_class_elicitation,18,negative,neither-nor,Sophie steps outside on a day in Fall.,Fall,cold,days in Fall,
33,6055,free_class_elicitation,1,positive,positive,Angela is thinking about watching something on Netflix and looks at the duration of a movie.,movie,long,movies,0.8959326148033142
33,7632,free_class_elicitation,2,positive,neither-nor,Jennifer steps outside on a day in Fall.,Fall,warm,Fall days,
33,13194,free_class_elicitation,3,negative,negative,Maya is at the butchershop and looks at the price of a piece of pork.,pork,cheap,pieces of pork,
33,5640,free_class_elicitation,4,negative,positive,Natalia is visiting a friend and sees their pet dog.,dog,small,dogs,0.8344309329986572
33,5984,free_class_elicitation,5,positive,negative,Kathleen sees a penguin at the zoo.,penguin,tall,penguins,0.3877726197242737
33,5945,free_class_elicitation,6,negative,negative,Stephanie steps outside during the evening.,the evening,dark,evenings,
33,11177,free_class_elicitation,7,negative,positive,Gary hears somebody playing the drums.,drums,quiet,players,0.3046387732028961
33,6408,free_class_elicitation,8,negative,neither-nor,Veronica is sitting in a classroom.,classroom,quiet,classrooms,0.8148455619812012
33,6721,free_class_elicitation,9,positive,positive,David lifts up an adult named Allen.,adult,heavy,adults,0.7610254883766174
33,8969,free_class_elicitation,10,negative,neither-nor,The waitress brings Alicia her food at the diner. Alicia takes the first bite of her fruit.,fruit,cold,fruits,0.8687760829925537
33,7753,free_class_elicitation,11,negative,positive,Tom is working in the machine shop and picks up a piece of steel.,steel,light,pieces of steel,
33,5873,free_class_elicitation,12,positive,neither-nor,Jasmine is walking outside and hears the cry of a parrot.,parrot,loud,parrots,0.6655376553535461
33,6137,free_class_elicitation,13,positive,neither-nor,Claire is looking for a place to live and checks out a townhouse.,townhouse,large,townhouses,0.6502399444580078
33,6065,free_class_elicitation,14,positive,negative,The mailman drops off an envelope for William. William picks it up.,envelope,heavy,envelopes,0.7296762466430664
33,21139,free_class_elicitation,15,negative,neither-nor,Laura looks at the price of a bottle of wine.,bottle of wine,cheap,bottles of wine,
33,4896,free_class_elicitation,16,negative,negative,Melinda sees a child named Pat.,child,short,children,0.8553194999694824
33,4785,free_class_elicitation,17,positive,negative,Lucas is at the zoo watching a slug travel.,slug,fast,slugs,0.5862656235694885
33,6616,free_class_elicitation,18,positive,positive,Charles takes a first sip from a cup of coffee.,coffee,hot,cups of coffee,
34,7077,free_class_elicitation,1,positive,positive,Anthony sees an adult named Pat.,adult,tall,people,0.46134981513023376
34,11653,free_class_elicitation,2,positive,negative,The mailman drops off an envelope for David. David picks it up.,envelope,heavy,envelopes,0.7296762466430664
34,11554,free_class_elicitation,3,negative,negative,Claire is helping a friend move and picks up a piece of clothing.,piece of clothing,light,shirts,
34,6594,free_class_elicitation,4,positive,neither-nor,Josh steps outside during dusk.,dusk,light,times,0.21884584426879883
34,10700,free_class_elicitation,5,positive,positive,Melinda is at the zoo watching a snake travel.,snake,fast,snakes,0.7458169460296631
34,9289,free_class_elicitation,6,negative,positive,Jennifer is at the butchershop and looks at the price of a piece of steak.,steak,cheap,cuts,0.22506915032863617
34,9052,free_class_elicitation,7,negative,neither-nor,Stephen is walking outside and hears the cry of a parrot.,parrot,quiet,birds,0.4827500581741333
34,13459,free_class_elicitation,8,positive,neither-nor,The waitress brings Julia her food at the diner. Julia takes the first bite of her fruit.,fruit,warm,fruits,0.8687760829925537
34,7890,free_class_elicitation,9,positive,negative,Laura steps outside on a day in Winter.,Winter,warm,days,
34,11072,free_class_elicitation,10,positive,positive,Cameron lifts up an adult named Allen.,adult,heavy,adults,0.7610254883766174
34,4309,free_class_elicitation,11,negative,negative,Kim hears somebody playing the violin.,violin,quiet,music,0.51483553647995
34,15741,free_class_elicitation,12,negative,negative,Maya is working in the machine shop and picks up a piece of styrofoam.,styrofoam,light,styrofoam,1.0
34,18602,free_class_elicitation,13,negative,positive,Alicia is sitting in a gymnasium.,gymnasium,quiet,gyms,0.4480839967727661
34,6571,free_class_elicitation,14,positive,neither-nor,Greg sees a monkey at the zoo.,monkey,tall,monkeys,0.726420521736145
34,5443,free_class_elicitation,15,positive,negative,Lee is visiting a friend and sees their pet mouse.,mouse,large,mice,0.6706715226173401
34,5645,free_class_elicitation,16,negative,positive,Tanya sees a basketball player.,basketball player,short,players,
34,17502,free_class_elicitation,17,negative,neither-nor,Daniel looks at the price of a bottle of wine.,bottle of wine,cheap,wines,
34,6866,free_class_elicitation,18,negative,neither-nor,Simon is looking for a place to live and checks out a townhouse.,townhouse,small,houses,0.4400395452976227
35,12961,free_class_elicitation,1,negative,neither-nor,The mailman drops off a package for Robert. Robert picks it up.,package,light,packages.,
35,15327,free_class_elicitation,2,positive,negative,Melinda is thinking about watching something on Netflix and looks at the duration of a TV show.,TV show,long,shows.,
35,14749,free_class_elicitation,3,positive,positive,Gary hears somebody playing the drums.,drums,loud,sounds,0.5546292662620544
35,9030,free_class_elicitation,4,positive,positive,Gabriel is at the butchershop and looks at the price of a piece of steak.,steak,expensive,foods,0.3903997242450714
35,8688,free_class_elicitation,5,positive,negative,Anthony sees a penguin at the zoo.,penguin,tall,penguins,0.3877726197242737
35,7593,free_class_elicitation,6,negative,neither-nor,Alicia is helping a friend move and picks up a box.,box,light,boxes,0.730573832988739
35,14576,free_class_elicitation,7,positive,positive,The waitress brings Natalia her food at the diner. Natalia takes the first bite of her burger.,burger,warm,items,0.17290979623794556
35,11157,free_class_elicitation,8,negative,negative,Julia is visiting a friend and sees their pet mouse.,mouse,small,animals,0.5146914720535278
35,17602,free_class_elicitation,9,positive,neither-nor,David is walking outside and hears the cry of a parrot.,parrot,loud,animals,0.4041670560836792
35,8032,free_class_elicitation,10,negative,positive,Claire sees a basketball player.,basketball player,short,players,
35,21551,free_class_elicitation,11,positive,negative,Veronica steps outside during the evening.,the evening,light,days,
35,7248,free_class_elicitation,12,negative,negative,Stephen is looking for a place to live and checks out an apartment.,apartment,small,apartments,0.7545885443687439
35,5703,free_class_elicitation,13,negative,negative,William is sitting in a library.,library,quiet,rooms,0.5171043872833252
35,18478,free_class_elicitation,14,negative,positive,Kathleen lifts up an adult named Allen.,adult,light,people,0.46134981513023376
35,12725,free_class_elicitation,15,negative,positive,Kim looks at the price of a bottle of top-shelf liquor.,bottle of top-shelf liquor,cheap,expensive liquors,
35,8566,free_class_elicitation,16,positive,neither-nor,Tom takes a first sip from a cup of tea.,tea,hot,beverages,0.5071244239807129
35,12567,free_class_elicitation,17,negative,neither-nor,Maya is working in the machine shop and picks up a piece of plastic.,plastic,light,objects,0.44546350836753845
35,8771,free_class_elicitation,18,positive,neither-nor,Laura is at the zoo watching an eel travel.,eel,fast,sealife,0.07785642892122269
36,20810,free_class_elicitation,1,positive,neither-nor,Natalia is thinking about watching something on Netflix and looks at the duration of a documentary.,documentary,long,shows,0.6493508219718933
36,14680,free_class_elicitation,2,positive,positive,Angela takes a first sip from a cup of coffee.,coffee,hot,beverages,0.5657267570495605
36,9564,free_class_elicitation,3,positive,neither-nor,Melinda sees a baseball player.,baseball player,tall,players,
36,11723,free_class_elicitation,4,positive,positive,Mika steps outside during the morning.,the morning,light,times of the day,
36,19495,free_class_elicitation,5,negative,neither-nor,Alicia is sitting in a classroom.,classroom,quiet,classrooms,0.8148455619812012
36,10992,free_class_elicitation,6,positive,negative,Alexander steps outside on a day in Winter.,Winter,warm,winter days,
36,16470,free_class_elicitation,7,negative,negative,Maya is at the butchershop and looks at the price of a piece of pork.,pork,cheap,stores in the area,
36,14230,free_class_elicitation,8,positive,neither-nor,Jennifer lifts up a kid named Allen.,kid,heavy,children ,
36,13421,free_class_elicitation,9,positive,negative,The mailman drops off an envelope for Charles. Charles picks it up.,envelope,heavy,mail,0.4889798164367676
36,7268,free_class_elicitation,10,positive,negative,Kim sees a child named Pat.,child,tall,children ,
36,22915,free_class_elicitation,11,negative,positive,The waitress brings Josh his food at the diner. Josh takes the first bite of his burger.,burger,cold,foods,0.5431130528450012
36,19824,free_class_elicitation,12,negative,positive,Simon is walking outside and hears the cry of a rooster.,rooster,quiet,rooster&quotechars he has heard,
36,9719,free_class_elicitation,13,negative,negative,Eric is looking for a place to live and checks out an apartment.,apartment,small,other places he has seen,
36,13613,free_class_elicitation,14,negative,negative,Jasmine is helping a friend move and picks up a piece of clothing.,piece of clothing,light,clothing,
36,13162,free_class_elicitation,15,negative,positive,John is working in the machine shop and picks up a piece of steel.,steel,light,materials ,
36,10159,free_class_elicitation,16,negative,neither-nor,Veronica looks at the price of a bottle of wine.,bottle of wine,cheap,bottles ,
36,10980,free_class_elicitation,17,negative,neither-nor,Monica sees a monkey at the zoo.,monkey,short,kinds of apes,
36,9146,free_class_elicitation,18,positive,positive,Claire is visiting a friend and sees their pet dog.,dog,large,dogs,0.8344309329986572
37,21473,free_class_elicitation,1,negative,neither-nor,Melinda looks at the price of a bottle of wine.,bottle of wine,cheap,bottles,
37,15480,free_class_elicitation,2,negative,positive,Jennifer is at the butchershop and looks at the price of a piece of steak.,steak,cheap,steaks,0.8130353093147278
37,9152,free_class_elicitation,3,positive,positive,Lucas sees a giraffe at the zoo.,giraffe,tall,animals,0.31947097182273865
37,23229,free_class_elicitation,4,negative,neither-nor,Mika is at the zoo watching an eel travel.,eel,slow,fish,0.41933712363243103
37,12021,free_class_elicitation,5,positive,negative,Gabriel is helping a friend move and picks up a piece of clothing.,piece of clothing,heavy,clothes,
37,8636,free_class_elicitation,6,negative,negative,Charles sees a jockey.,jockey,short,people,0.10459363460540771
37,7733,free_class_elicitation,7,positive,positive,Eric lifts up an adult named Allen.,adult,heavy,adults,0.7610254883766174
37,11983,free_class_elicitation,8,positive,negative,John is sitting in a library.,library,loud,libraries,0.7932377457618713
37,8353,free_class_elicitation,9,positive,positive,Greg hears somebody playing the drums.,drums,loud,noises,0.43970635533332825
37,23097,free_class_elicitation,10,positive,neither-nor,Tanya steps outside during dusk.,dusk,light,days,0.4569459557533264
37,10898,free_class_elicitation,11,negative,positive,Josh is working in the machine shop and picks up a piece of steel.,steel,light,metals,0.5629696249961853
37,12012,free_class_elicitation,12,negative,neither-nor,Lee steps outside on a day in Fall.,Fall,cold,days,
37,14849,free_class_elicitation,13,negative,positive,Maya is walking outside and hears the cry of a rooster.,rooster,quiet,roosters,0.3816651701927185
37,8471,free_class_elicitation,14,negative,negative,Sophie is visiting a friend and sees their pet mouse.,mouse,small,mice,0.6706715226173401
37,9313,free_class_elicitation,15,positive,neither-nor,The mailman drops off a package for Veronica. Veronica picks it up.,package,heavy,packages,0.7980517745018005
37,10175,free_class_elicitation,16,negative,negative,Simon is looking for a place to live and checks out an apartment.,apartment,small,apartments ,
37,11202,free_class_elicitation,17,positive,negative,Monica takes a first sip from a cup of water.,water,hot,water,1.0
37,14489,free_class_elicitation,18,positive,neither-nor,The waitress brings Stephanie her food at the diner. Stephanie takes the first bite of her fruit.,fruit,warm,fruits,0.8687760829925537
38,45750,free_class_elicitation,1,positive,negative,The waitress brings Michael his food at the diner. Michael takes the first bite of his ice cream.,ice cream,warm,It is warmer than ice cream should be,
38,48693,free_class_elicitation,2,positive,negative,Greg is visiting a friend and sees their pet mouse.,mouse,large,mice,0.6706715226173401
38,58938,free_class_elicitation,3,negative,negative,John is looking for a place to live and checks out an apartment.,apartment,small,apartments,0.7545885443687439
38,6346,free_class_elicitation,4,positive,positive,Robert sees an adult named Pat.,adult,tall,adults,0.7610254883766174
38,6506,free_class_elicitation,5,positive,positive,Tanya takes a first sip from a cup of coffee.,coffee,hot,cups of coffee,
38,5465,free_class_elicitation,6,negative,neither-nor,The mailman drops off a package for Gabriel. Gabriel picks it up.,package,light,packages,0.7980517745018005
38,7835,free_class_elicitation,7,positive,negative,Anthony is thinking about watching something on Netflix and looks at the duration of a TV show.,TV show,long,Netflix TV shows,
38,5901,free_class_elicitation,8,negative,positive,Lee sees a giraffe at the zoo.,giraffe,short,giraffes,0.628443717956543
38,6466,free_class_elicitation,9,positive,neither-nor,Laura is at the zoo watching an eel travel.,eel,fast,eels,0.619676411151886
38,10498,free_class_elicitation,10,negative,neither-nor,William lifts up a kid named Allen.,kid,light,kids,0.7564833760261536
38,70643,free_class_elicitation,11,positive,neither-nor,Lucas sees a baseball player.,baseball player,tall,baseball players,
38,5327,free_class_elicitation,12,negative,negative,Angela steps outside on a day in Winter.,Winter,cold,Winter days,
38,4834,free_class_elicitation,13,negative,neither-nor,Kathleen is sitting in a classroom.,classroom,quiet,classrooms,0.8148455619812012
38,6966,free_class_elicitation,14,negative,positive,Stephanie is walking outside and hears the cry of a rooster.,rooster,quiet,rooster crys,
38,5227,free_class_elicitation,15,negative,negative,Sophie is working in the machine shop and picks up a piece of styrofoam.,styrofoam,light,pieces of styrofoam,
38,5581,free_class_elicitation,16,positive,positive,Alexander is helping a friend move and picks up a piece of furniture.,piece of furniture,heavy,pieces of furniture,
38,4716,free_class_elicitation,17,positive,neither-nor,Josh looks at the price of a bottle of wine.,bottle of wine,expensive,bottles of wine,
38,3489,free_class_elicitation,18,negative,positive,Julia is at the butchershop and looks at the price of a piece of steak.,steak,cheap,steaks,0.8130353093147278
39,12735,free_class_elicitation,1,negative,positive,Kim sees an adult named Pat.,adult,short,men,0.46003133058547974
39,30703,free_class_elicitation,2,negative,neither-nor,The waitress brings Tom his food at the diner. Tom takes the first bite of his fruit.,fruit,cold,food,0.573560357093811
39,13423,free_class_elicitation,3,positive,negative,Julia lifts up a baby named Allen.,baby,heavy,babies,0.7870863676071167
39,11591,free_class_elicitation,4,positive,positive,Anthony is thinking about watching something on Netflix and looks at the duration of a movie.,movie,long,movies,0.8959326148033142
39,8654,free_class_elicitation,5,positive,neither-nor,Natalia is visiting a friend and sees their pet cat.,cat,large,cats,0.7323004007339478
39,23863,free_class_elicitation,6,negative,negative,Sophie is walking outside and hears the cry of a hummingbird.,hummingbird,quiet,birds,0.3009658455848694
